Time (min)	Temperature (C)	Weight (mg)
8.89E-04	27.3752	10.63958
0.004166667	27.3797	10.63961
0.0125	27.38604	10.63966
0.02083334	27.39689	10.63969
0.02916666	27.404	10.63967
0.0375	27.41003	10.6397
0.04583334	27.41255	10.63967
0.05416668	27.4157	10.63967
0.0625	27.42333	10.63964
0.07083332	27.42843	10.63963
0.07916666	27.43792	10.63961
0.0875	27.44258	10.63961
0.09583332	27.45086	10.63964
0.1041666	27.45644	10.63966
0.1125	27.46028	10.63967
0.1208333	27.46826	10.6397
0.1291666	27.47423	10.63979
0.1375	27.47756	10.63984
0.1458333	27.48817	10.63992
0.1541667	27.49844	10.64
0.1625	27.50168	10.64006
0.1708334	27.5126	10.64007
0.1791666	27.52132	10.6401
0.1875	27.52785	10.64013
0.1958334	27.54144	10.64014
0.2041667	27.5526	10.64013
0.2125	27.5625	10.64013
0.2208333	27.57303	10.64016
0.2291667	27.58222	10.6402
0.2375	27.59457	10.64021
0.2458334	27.60922	10.6403
0.2541666	27.61857	10.64042
0.2625	27.63533	10.64044
0.2708334	27.64865	10.64049
0.2791667	27.6595	10.64059
0.2875	27.67777	10.6407
0.2958333	27.69106	10.6408
0.3041667	27.70686	10.64086
0.3125	27.72322	10.64091
0.3208333	27.73692	10.64099
0.3291667	27.75228	10.64102
0.3375	27.7737	10.64105
0.3458333	27.79112	10.64114
0.3541666	27.81538	10.64125
0.3625	27.8336	10.6413
0.3708334	27.84989	10.64133
0.3791666	27.87146	10.64135
0.3875	27.89132	10.6414
0.3958334	27.91704	10.64144
0.4041666	27.94047	10.64147
0.4125	27.95832	10.64148
0.4208333	27.98715	10.64149
0.4291667	28.01261	10.64149
0.4375	28.03925	10.64144
0.4458333	28.06295	10.64148
0.4541667	28.08955	10.64148
0.4625	28.12053	10.64154
0.4708334	28.14787	10.64155
0.4791666	28.17805	10.64156
0.4875	28.20345	10.64155
0.4958334	28.23302	10.64158
0.5041666	28.26995	10.64158
0.5125	28.30135	10.64162
0.5208332	28.32971	10.64166
0.5291666	28.36581	10.64166
0.5375	28.40176	10.64168
0.5458334	28.43184	10.64168
0.5541668	28.46784	10.64167
0.5625	28.50332	10.6417
0.5708332	28.53875	10.64171
0.5791666	28.57686	10.6417
0.5875	28.61714	10.64174
0.5958334	28.655	10.64175
0.6041668	28.69369	10.64174
0.6125	28.73421	10.64172
0.6208334	28.77643	10.64168
0.6291666	28.81815	10.64165
0.6375	28.86003	10.64163
0.6458332	28.90459	10.64154
0.6541666	28.9465	10.64153
0.6625	28.98957	10.6415
0.6708334	29.03702	10.64145
0.6791668	29.08144	10.64138
0.6875	29.13063	10.64132
0.6958332	29.17656	10.64129
0.7041666	29.22664	10.64127
0.7125	29.2737	10.64124
0.7208334	29.32556	10.64122
0.7291668	29.37585	10.64123
0.7375	29.4251	10.64123
0.7458334	29.48003	10.64128
0.7541666	29.52997	10.64127
0.7625	29.57904	10.6413
0.7708332	29.63975	10.64132
0.7791666	29.68894	10.64133
0.7875	29.74767	10.64132
0.7958334	29.80462	10.64135
0.8041668	29.87678	10.64134
0.8125	29.93589	10.64136
0.8208332	29.98965	10.64134
0.8291666	30.04842	10.64126
0.8375	30.10918	10.64124
0.8458334	30.16868	10.64119
0.8541668	30.23218	10.64117
0.8625	30.28901	10.64117
0.8708332	30.35505	10.64116
0.8791668	30.41117	10.64112
0.8875	30.4778	10.64108
0.8958332	30.53858	10.64106
0.9041666	30.58949	10.64104
0.9125	30.65663	10.64104
0.9208334	30.71975	10.64106
0.9291668	30.7862	10.6411
0.9375	30.85476	10.64112
0.9458332	30.92498	10.6411
0.9541666	30.99354	10.64113
0.9625	31.06344	10.64114
0.9708334	31.1346	10.64115
0.9791668	31.20022	10.64114
0.9875	31.27308	10.64114
0.9958332	31.34607	10.64111
1.004167	31.41766	10.64109
1.0125	31.48982	10.64103
1.020833	31.56395	10.64097
1.029167	31.63512	10.64093
1.0375	31.70924	10.64085
1.045834	31.78608	10.64076
1.054167	31.85541	10.64071
1.0625	31.93588	10.6407
1.070833	32.01422	10.64066
1.079166	32.08691	10.64061
1.0875	32.16843	10.64055
1.095833	32.24374	10.64054
1.104166	32.32068	10.64055
1.1125	32.40115	10.64053
1.120833	32.48074	10.64051
1.129167	32.55881	10.64053
1.1375	32.6406	10.64054
1.145834	32.71871	10.64053
1.154167	32.80322	10.64054
1.1625	32.88013	10.64056
1.170834	32.96672	10.6406
1.179167	33.04454	10.64063
1.1875	33.13084	10.6406
1.195833	33.21476	10.64061
1.204166	33.2993	10.64066
1.2125	33.39482	10.6406
1.220833	33.46726	10.64058
1.229166	33.55198	10.64056
1.2375	33.63494	10.64056
1.245833	33.71814	10.64051
1.254167	33.81059	10.64046
1.2625	33.89611	10.64042
1.270834	33.9816	10.64045
1.279167	34.06582	10.64043
1.2875	34.15656	10.64034
1.295834	34.24378	10.64041
1.304167	34.33632	10.64045
1.3125	34.41925	10.64045
1.320833	34.50888	10.64044
1.329166	34.59589	10.6405
1.3375	34.68411	10.64054
1.345833	34.77902	10.64056
1.354166	34.8676	10.64054
1.3625	34.9571	10.64053
1.370833	35.0529	10.64061
1.379167	35.1473	10.64062
1.3875	35.2305	10.6406
1.395834	35.32474	10.64061
1.404167	35.4146	10.64061
1.4125	35.50538	10.6406
1.420834	35.59894	10.64057
1.429167	35.69231	10.64056
1.4375	35.78301	10.64057
1.445833	35.87513	10.64058
1.454166	35.96956	10.64058
1.4625	36.0604	10.64057
1.470833	36.15506	10.64057
1.479166	36.24947	10.64059
1.4875	36.3423	10.6406
1.495833	36.43314	10.64058
1.504167	36.52783	10.64057
1.5125	36.62452	10.64054
1.520834	36.72097	10.64048
1.529167	36.81556	10.64044
1.5375	36.90872	10.64038
1.545834	37.00802	10.64038
1.554167	37.09746	10.64036
1.5625	37.19791	10.64031
1.570833	37.291	10.64031
1.579166	37.38632	10.64033
1.5875	37.48258	10.64038
1.595833	37.57696	10.6404
1.604166	37.67626	10.64041
1.6125	37.77317	10.64044
1.620833	37.86453	10.6405
1.629167	37.96037	10.64049
1.6375	38.05711	10.64052
1.645834	38.15494	10.64059
1.654167	38.2505	10.6406
1.6625	38.34376	10.64062
1.670834	38.44049	10.64064
1.679166	38.54015	10.64064
1.6875	38.63394	10.64068
1.695834	38.73018	10.64066
1.704166	38.82559	10.64058
1.7125	38.92441	10.64055
1.720833	39.0225	10.64051
1.729166	39.11642	10.64042
1.7375	39.21213	10.64042
1.745833	39.31025	10.64039
1.754167	39.40862	10.64035
1.7625	39.50109	10.64037
1.770834	39.60242	10.64034
1.779167	39.69796	10.64044
1.7875	39.79555	10.64051
1.795834	39.89131	10.64055
1.804166	39.98818	10.64058
1.8125	40.08152	10.64064
1.820834	40.18184	10.64067
1.829166	40.27588	10.64068
1.8375	40.37622	10.6407
1.845833	40.47102	10.6407
1.854166	40.56643	10.64077
1.8625	40.66426	10.64072
1.870833	40.76144	10.64073
1.879167	40.85602	10.6407
1.8875	40.95086	10.64069
1.895834	41.05666	10.6407
1.904167	41.14306	10.64071
1.9125	41.24316	10.64073
1.920834	41.34341	10.64074
1.929166	41.4378	10.64078
1.9375	41.52874	10.6408
1.945834	41.63122	10.64083
1.954166	41.7209	10.64084
1.9625	41.82312	10.64087
1.970833	41.92006	10.64091
1.979166	42.01478	10.64094
1.9875	42.10717	10.64095
1.995833	42.20446	10.64096
2.004166	42.29928	10.64094
2.0125	42.39081	10.6409
2.020833	42.49153	10.64087
2.029167	42.58782	10.64084
2.0375	42.68336	10.64086
2.045834	42.77424	10.6409
2.054166	42.87416	10.64094
2.0625	42.96426	10.64096
2.070834	43.06435	10.64098
2.079166	43.16203	10.641
2.0875	43.25105	10.64104
2.095833	43.3399	10.64106
2.104167	43.43428	10.64112
2.1125	43.52937	10.64114
2.120834	43.62056	10.64115
2.129166	43.7152	10.64114
2.1375	43.8093	10.64111
2.145833	43.91079	10.64106
2.154167	44.0087	10.64103
2.1625	44.09016	10.64106
2.170834	44.18522	10.64109
2.179166	44.2788	10.64108
2.1875	44.37482	10.64106
2.195834	44.46244	10.64108
2.204166	44.55653	10.64107
2.2125	44.64884	10.64109
2.220833	44.74252	10.64114
2.229167	44.83574	10.64118
2.2375	44.92526	10.64122
2.245834	45.01759	10.6412
2.254166	45.1066	10.64122
2.2625	45.20359	10.6413
2.270833	45.29429	10.64133
2.279167	45.3845	10.64138
2.2875	45.47866	10.64142
2.295834	45.56915	10.64144
2.304166	45.6585	10.64144
2.3125	45.7521	10.64146
2.320834	45.84488	10.64146
2.329166	45.93149	10.64148
2.3375	46.02696	10.64148
2.345833	46.11516	10.64144
2.354167	46.2034	10.64142
2.3625	46.293	10.64142
2.370834	46.37934	10.64142
2.379166	46.47703	10.64142
2.3875	46.56153	10.6414
2.395833	46.6499	10.64143
2.404167	46.7409	10.64146
2.4125	46.8294	10.64144
2.420834	46.9223	10.64143
2.429166	47.01342	10.64142
2.4375	47.10172	10.6414
2.445834	47.18634	10.64137
2.454166	47.27848	10.64134
2.4625	47.3759	10.64134
2.470833	47.45998	10.64138
2.479167	47.544	10.64136
2.4875	47.6359	10.64136
2.495834	47.7179	10.64139
2.504166	47.81176	10.64142
2.5125	47.897	10.64149
2.520833	47.9831	10.64156
2.529167	48.07034	10.6416
2.5375	48.1575	10.64166
2.545834	48.2435	10.64171
2.554166	48.33062	10.64172
2.5625	48.41601	10.64172
2.570834	48.50302	10.64173
2.579166	48.5935	10.64175
2.5875	48.67665	10.64174
2.595833	48.7655	10.64175
2.604167	48.8498	10.64174
2.6125	48.93839	10.64175
2.620834	49.02101	10.64172
2.629166	49.10984	10.64172
2.6375	49.197	10.64172
2.645833	49.27885	10.64175
2.654167	49.3725	10.6418
2.6625	49.46443	10.64182
2.670834	49.55428	10.64186
2.679166	49.63726	10.64187
2.6875	49.72334	10.64185
2.695834	49.80701	10.64181
2.704166	49.88746	10.64181
2.7125	49.96022	10.64179
2.720833	50.04754	10.6418
2.729167	50.1283	10.64184
2.7375	50.21378	10.64184
2.745834	50.29793	10.64183
2.754166	50.38158	10.64186
2.7625	50.46653	10.64194
2.770833	50.55381	10.64196
2.779167	50.63386	10.64203
2.7875	50.71984	10.64209
2.795834	50.81016	10.64213
2.804166	50.88854	10.64218
2.8125	50.97162	10.64218
2.820834	51.05232	10.64217
2.829166	51.13294	10.64214
2.8375	51.21992	10.64208
2.845833	51.30424	10.64201
2.854167	51.38512	10.64203
2.8625	51.46567	10.64199
2.870834	51.55156	10.64199
2.879166	51.62966	10.64201
2.8875	51.71793	10.64199
2.895833	51.79553	10.64198
2.904167	51.88111	10.64198
2.9125	51.96144	10.64206
2.920834	52.04889	10.64213
2.929166	52.12892	10.64214
2.9375	52.20922	10.64216
2.945834	52.29453	10.64214
2.954166	52.37376	10.64213
2.9625	52.45474	10.64209
2.970833	52.5345	10.64204
2.979167	52.61778	10.64202
2.9875	52.70019	10.64201
2.995834	52.7857	10.64198
3.004166	52.86919	10.64197
3.0125	52.94812	10.64197
3.020833	53.02512	10.64198
3.029167	53.10486	10.64207
3.0375	53.18852	10.64212
3.045834	53.27221	10.64218
3.054166	53.34994	10.64226
3.0625	53.43407	10.64231
3.070834	53.5162	10.64236
3.079166	53.59749	10.6424
3.0875	53.67572	10.64239
3.095833	53.75476	10.64239
3.104167	53.83722	10.64239
3.1125	53.91994	10.64239
3.120834	53.99718	10.64235
3.129166	54.07877	10.64232
3.1375	54.1582	10.64228
3.145833	54.24144	10.64227
3.154167	54.32016	10.64228
3.1625	54.40139	10.64228
3.170834	54.48555	10.64231
3.179166	54.56226	10.64234
3.1875	54.64538	10.64234
3.195834	54.72336	10.6423
3.204167	54.80424	10.64226
3.2125	54.88402	10.64228
3.220833	54.96406	10.64232
3.229167	55.04324	10.64236
3.2375	55.12244	10.64236
3.245834	55.20146	10.64236
3.254166	55.28132	10.64232
3.2625	55.3663	10.6423
3.270833	55.44259	10.64231
3.279167	55.52246	10.64233
3.2875	55.60105	10.64234
3.295833	55.6815	10.6423
3.304166	55.76062	10.64225
3.3125	55.84482	10.6422
3.320834	55.92514	10.64215
3.329167	56.00506	10.64213
3.3375	56.08313	10.64214
3.345833	56.16262	10.64218
3.354167	56.24032	10.64221
3.3625	56.31985	10.64226
3.370834	56.40128	10.6423
3.379166	56.48373	10.64235
3.3875	56.55783	10.64235
3.395833	56.63791	10.64239
3.404167	56.7179	10.64247
3.4125	56.81113	10.64244
3.420833	56.88711	10.64244
3.429166	56.97148	10.64243
3.4375	57.05146	10.64239
3.445834	57.12886	10.64237
3.454167	57.20738	10.6424
3.4625	57.28384	10.64243
3.470833	57.35182	10.64247
3.479167	57.4315	10.6425
3.4875	57.51078	10.64249
3.495834	57.58902	10.64256
3.504166	57.67452	10.64258
3.5125	57.75581	10.6426
3.520833	57.83124	10.64262
3.529167	57.90574	10.64266
3.5375	57.9882	10.64266
3.545833	58.06702	10.64268
3.554166	58.14481	10.64274
3.5625	58.2276	10.64274
3.570834	58.31006	10.64272
3.579167	58.3863	10.64273
3.5875	58.46871	10.64271
3.595833	58.54277	10.6427
3.604167	58.6249	10.64269
3.6125	58.70636	10.64272
3.620834	58.77951	10.64269
3.629166	58.86118	10.64268
3.6375	58.93887	10.64267
3.645833	59.01822	10.64267
3.654167	59.09868	10.64268
3.6625	59.17821	10.64269
3.670833	59.2563	10.64272
3.679166	59.33829	10.64278
3.6875	59.41685	10.64279
3.695834	59.49536	10.64277
3.704167	59.5788	10.6428
3.7125	59.65698	10.64281
3.720833	59.73271	10.64277
3.729167	59.81555	10.64274
3.7375	59.89399	10.64276
3.745834	59.97503	10.64277
3.754166	60.05442	10.64277
3.7625	60.1378	10.64278
3.770833	60.21508	10.64282
3.779167	60.29322	10.64281
3.7875	60.37141	10.64281
3.795833	60.45482	10.64283
3.804166	60.53463	10.64287
3.8125	60.6082	10.64285
3.820834	60.69106	10.64282
3.829167	60.77465	10.64281
3.8375	60.8524	10.6428
3.845833	60.93272	10.64278
3.854167	61.01275	10.64276
3.8625	61.09414	10.64279
3.870834	61.17332	10.64279
3.879166	61.25382	10.64277
3.8875	61.3313	10.64275
3.895833	61.41535	10.64277
3.904167	61.49175	10.64277
3.9125	61.57678	10.64276
3.920833	61.65724	10.64276
3.929166	61.73274	10.64273
3.9375	61.8122	10.64271
3.945834	61.89228	10.64268
3.954167	61.9752	10.64267
3.9625	62.05157	10.64271
3.970833	62.1384	10.6427
3.979167	62.21729	10.64272
3.9875	62.2943	10.64276
3.995834	62.37728	10.64281
4.004166	62.45567	10.64284
4.0125	62.53853	10.64285
4.020834	62.61792	10.64286
4.029167	62.69682	10.64288
4.0375	62.77627	10.6429
4.045833	62.86024	10.64287
4.054167	62.93776	10.64289
4.0625	63.02057	10.64288
4.070833	63.09695	10.64286
4.079167	63.1806	10.6428
4.0875	63.26136	10.64275
4.095833	63.34072	10.64274
4.104166	63.4228	10.64278
4.1125	63.49985	10.64277
4.120834	63.58374	10.64273
4.129166	63.6623	10.64274
4.1375	63.74584	10.64273
4.145834	63.82379	10.64272
4.154167	63.90692	10.64273
4.1625	63.98892	10.64276
4.170833	64.06938	10.64276
4.179167	64.15006	10.64279
4.1875	64.23496	10.64277
4.195833	64.31186	10.64279
4.204167	64.39516	10.64282
4.2125	64.4727	10.64281
4.220833	64.5582	10.64282
4.229166	64.63653	10.64285
4.2375	64.71789	10.64285
4.245834	64.81332	10.64285
4.254166	64.89571	10.64289
4.2625	64.97492	10.64292
4.270834	65.04972	10.64291
4.279167	65.12451	10.64292
4.2875	65.20678	10.64293
4.295833	65.2898	10.64293
4.304167	65.38354	10.64292
4.3125	65.46593	10.6429
4.320833	65.54522	10.64292
4.329167	65.62792	10.64294
4.3375	65.70644	10.64292
4.345833	65.7914	10.64292
4.354166	65.87134	10.64292
4.3625	65.95041	10.64289
4.370834	66.03278	10.64292
4.379166	66.11655	10.64294
4.3875	66.19447	10.64296
4.395834	66.27876	10.64297
4.404167	66.36121	10.64296
4.4125	66.43931	10.64294
4.420833	66.52196	10.64291
4.429167	66.60391	10.64286
4.4375	66.68564	10.64285
4.445833	66.7664	10.64286
4.454167	66.84824	10.64283
4.4625	66.9197	10.64284
4.470833	66.99998	10.64288
4.479166	67.08186	10.64289
4.4875	67.1609	10.64288
4.495834	67.24612	10.64291
4.504166	67.3289	10.64297
4.5125	67.40932	10.643
4.520834	67.49478	10.643
4.529167	67.5747	10.64301
4.5375	67.66015	10.64301
4.545833	67.73797	10.643
4.554167	67.823	10.64299
4.5625	67.90616	10.643
4.570833	67.98545	10.64301
4.579167	68.0705	10.64303
4.5875	68.15282	10.64304
4.595833	68.23426	10.64307
4.604166	68.317	10.6431
4.6125	68.39784	10.64307
4.620834	68.48212	10.64308
4.629166	68.56199	10.64308
4.6375	68.648	10.64308
4.645834	68.72566	10.6431
4.654167	68.81398	10.64311
4.6625	68.89351	10.64307
4.670833	68.9775	10.64306
4.679167	69.05953	10.64304
4.6875	69.14176	10.64301
4.695833	69.22621	10.643
4.704167	69.30834	10.64298
4.7125	69.3917	10.64295
4.720833	69.47256	10.64293
4.729166	69.5566	10.64292
4.7375	69.63866	10.64292
4.745834	69.7211	10.64296
4.754166	69.80356	10.64299
4.7625	69.88687	10.643
4.770834	69.97138	10.64302
4.779167	70.05079	10.64306
4.7875	70.13526	10.64311
4.795833	70.22199	10.64316
4.804167	70.30211	10.64317
4.8125	70.38722	10.6432
4.820833	70.47016	10.64322
4.829167	70.55236	10.64322
4.8375	70.63626	10.64322
4.845833	70.71544	10.64321
4.854166	70.80402	10.64321
4.8625	70.88276	10.64322
4.870834	70.96652	10.64322
4.879166	71.06194	10.64324
4.8875	71.1455	10.64325
4.895834	71.21653	10.64322
4.904167	71.30098	10.64316
4.9125	71.385	10.64313
4.920833	71.4653	10.64306
4.929167	71.55395	10.64304
4.9375	71.6355	10.64302
4.945833	71.72012	10.64297
4.954167	71.80204	10.64296
4.9625	71.87988	10.64291
4.970833	71.96742	10.64289
4.979166	72.04984	10.64289
4.9875	72.13056	10.64291
4.995834	72.21595	10.64293
5.004166	72.30022	10.64299
5.0125	72.3844	10.64302
5.020834	72.469	10.64306
5.029167	72.54972	10.6431
5.0375	72.63647	10.64312
5.045833	72.71856	10.64316
5.054167	72.80326	10.64319
5.0625	72.88657	10.6432
5.070833	72.97376	10.64323
5.079167	73.05736	10.64325
5.0875	73.13738	10.64325
5.095833	73.22152	10.64326
5.104166	73.30642	10.64325
5.1125	73.38972	10.64323
5.120834	73.47164	10.6432
5.129166	73.55836	10.64319
5.1375	73.64289	10.64318
5.145834	73.72186	10.64317
5.154167	73.81076	10.64316
5.1625	73.893	10.64315
5.170833	73.97561	10.64315
5.179167	74.05968	10.64312
5.1875	74.14378	10.64309
5.195833	74.22444	10.6431
5.204167	74.30714	10.64312
5.2125	74.39329	10.64316
5.220833	74.47871	10.64314
5.229166	74.56403	10.64315
5.2375	74.64458	10.64316
5.245834	74.72956	10.64317
5.254166	74.81556	10.64315
5.2625	74.89788	10.64314
5.270834	74.98363	10.64317
5.279168	75.06744	10.64317
5.2875	75.1504	10.6432
5.295832	75.23262	10.64318
5.304168	75.32134	10.64319
5.3125	75.40449	10.64318
5.320832	75.4845	10.64315
5.329168	75.56722	10.64314
5.3375	75.65339	10.64313
5.345832	75.73774	10.64314
5.354166	75.82265	10.64314
5.3625	75.90542	10.64313
5.370834	75.98778	10.64308
5.379166	76.07226	10.64304
5.3875	76.15738	10.64301
5.395834	76.24092	10.64302
5.404168	76.32456	10.64302
5.4125	76.40994	10.64301
5.420832	76.49022	10.64301
5.429168	76.57588	10.64299
5.4375	76.66256	10.643
5.445832	76.74397	10.64301
5.454168	76.83097	10.64301
5.4625	76.91606	10.64304
5.470832	76.99898	10.64304
5.479166	77.08262	10.64299
5.4875	77.16587	10.643
5.495834	77.24993	10.64299
5.504166	77.33425	10.64299
5.5125	77.41634	10.64298
5.520834	77.50644	10.64293
5.529168	77.58579	10.64285
5.5375	77.67151	10.64282
5.545832	77.75528	10.6428
5.554168	77.84078	10.64278
5.5625	77.92476	10.64278
5.570832	78.00818	10.64281
5.579168	78.09141	10.64283
5.5875	78.17672	10.64283
5.595832	78.26212	10.64286
5.604166	78.3446	10.6429
5.6125	78.43028	10.64294
5.620834	78.51145	10.64295
5.629166	78.59915	10.64297
5.6375	78.6837	10.64302
5.645834	78.77906	10.64306
5.654168	78.86352	10.64304
5.6625	78.9425	10.64304
5.670832	79.01762	10.64306
5.679168	79.10089	10.64302
5.6875	79.18868	10.643
5.695832	79.27134	10.64302
5.704168	79.35451	10.64304
5.7125	79.43969	10.64304
5.720832	79.52298	10.64305
5.729166	79.60426	10.643
5.7375	79.69278	10.64293
5.745834	79.77184	10.64288
5.754166	79.85831	10.64282
5.7625	79.9437	10.64283
5.770834	80.02808	10.64279
5.779168	80.11272	10.64278
5.7875	80.19374	10.64278
5.795832	80.28085	10.64285
5.804168	80.36468	10.64285
5.8125	80.44861	10.64287
5.820832	80.5353	10.64292
5.829168	80.62042	10.64295
5.8375	80.70157	10.64299
5.845832	80.78676	10.64301
5.854166	80.86743	10.64304
5.8625	80.95265	10.64304
5.870834	81.04045	10.64304
5.879166	81.12394	10.64296
5.8875	81.206	10.64295
5.895834	81.28994	10.64306
5.904168	81.3731	10.64304
5.9125	81.4593	10.64305
5.920832	81.54666	10.64304
5.929168	81.62728	10.64305
5.9375	81.71	10.64304
5.945832	81.79422	10.64302
5.954168	81.87761	10.64301
5.9625	81.96594	10.64296
5.970832	82.0498	10.64291
5.979166	82.1336	10.64286
5.9875	82.21739	10.64284
5.995834	82.30162	10.64279
6.004166	82.38735	10.64281
6.0125	82.46939	10.64281
6.020834	82.55358	10.64281
6.029168	82.63941	10.64281
6.0375	82.72019	10.64282
6.045832	82.80295	10.64286
6.054168	82.88687	10.64288
6.0625	82.97134	10.64279
6.070832	83.05647	10.64283
6.079168	83.13793	10.64286
6.0875	83.22294	10.64286
6.095832	83.31652	10.64283
6.104166	83.41043	10.64281
6.1125	83.49516	10.64279
6.120834	83.57366	10.64277
6.129166	83.65866	10.64273
6.1375	83.737	10.64273
6.145834	83.81189	10.64275
6.154168	83.89699	10.64274
6.1625	83.98003	10.64271
6.170832	84.06461	10.64271
6.179168	84.14938	10.64274
6.1875	84.23446	10.64276
6.195832	84.31884	10.64279
6.204168	84.3991	10.6428
6.2125	84.48974	10.64281
6.220832	84.57665	10.64279
6.229166	84.65184	10.64278
6.2375	84.73782	10.64277
6.245834	84.82079	10.6428
6.254166	84.90328	10.64279
6.2625	84.98828	10.64278
6.270834	85.07234	10.64275
6.279168	85.15592	10.64272
6.2875	85.23808	10.64271
6.295832	85.32259	10.64271
6.304168	85.40555	10.64271
6.3125	85.49168	10.64271
6.320832	85.57519	10.6427
6.329168	85.65826	10.64267
6.3375	85.74306	10.64264
6.345832	85.82684	10.6426
6.354166	85.91272	10.64261
6.3625	85.99494	10.64262
6.370834	86.07965	10.64256
6.379166	86.16934	10.64253
6.3875	86.25994	10.6425
6.395834	86.33282	10.64249
6.404166	86.41701	10.64248
6.4125	86.50126	10.64248
6.420832	86.58536	10.64251
6.429168	86.66853	10.64252
6.4375	86.75242	10.6425
6.445832	86.83858	10.64248
6.454168	86.92228	10.64252
6.4625	87.0038	10.64252
6.470834	87.09598	10.64247
6.479166	87.18695	10.64246
6.4875	87.27232	10.64244
6.495834	87.35645	10.64239
6.504166	87.43774	10.64232
6.5125	87.51944	10.64229
6.520834	87.60619	10.64226
6.529166	87.69116	10.64224
6.5375	87.77141	10.64221
6.545832	87.85965	10.64222
6.554168	87.92603	10.64229
6.5625	88.00884	10.64228
6.570832	88.09442	10.64228
6.579168	88.18031	10.6423
6.5875	88.25975	10.64232
6.595834	88.34345	10.64229
6.604166	88.42853	10.64236
6.6125	88.51294	10.64237
6.620834	88.60005	10.64237
6.629166	88.68144	10.64239
6.6375	88.76578	10.64237
6.645834	88.84679	10.64232
6.654166	88.93472	10.64232
6.6625	89.01619	10.64229
6.670832	89.10312	10.64227
6.679168	89.18524	10.64226
6.6875	89.27128	10.64216
6.695832	89.35629	10.64211
6.704168	89.43363	10.64208
6.7125	89.52118	10.64209
6.720834	89.60508	10.64207
6.729166	89.68887	10.64204
6.7375	89.76874	10.64203
6.745834	89.85366	10.64203
6.754166	89.93889	10.64204
6.7625	90.02105	10.64204
6.770834	90.10481	10.64206
6.779166	90.19028	10.64205
6.7875	90.27499	10.64204
6.795832	90.3572	10.64198
6.804168	90.4416	10.64197
6.8125	90.52626	10.64199
6.820832	90.60961	10.64197
6.829168	90.69188	10.64194
6.8375	90.77735	10.64193
6.845834	90.86061	10.64195
6.854166	90.94512	10.64193
6.8625	91.02882	10.64195
6.870834	91.11212	10.64194
6.879166	91.19576	10.64195
6.8875	91.28019	10.64196
6.895834	91.36588	10.64194
6.904166	91.44989	10.64192
6.9125	91.53609	10.64193
6.920832	91.61524	10.64191
6.929168	91.69918	10.6419
6.9375	91.78559	10.64192
6.945832	91.86786	10.64192
6.954168	91.94947	10.64193
6.9625	92.03209	10.64192
6.970834	92.12206	10.6419
6.979166	92.20324	10.64191
6.9875	92.28968	10.64192
6.995834	92.3709	10.64192
7.004166	92.45488	10.64189
7.0125	92.53876	10.64185
7.020834	92.62139	10.64178
7.029166	92.70491	10.64176
7.0375	92.79506	10.64173
7.045832	92.88586	10.6417
7.054168	92.96668	10.64171
7.0625	93.05611	10.6417
7.070832	93.14132	10.64163
7.079168	93.22212	10.64162
7.0875	93.30656	10.64163
7.095834	93.38785	10.64162
7.104166	93.47358	10.64161
7.1125	93.555	10.64159
7.120834	93.62774	10.64159
7.129166	93.71053	10.64162
7.1375	93.79462	10.64162
7.145834	93.87686	10.64163
7.154166	93.96164	10.64162
7.1625	94.0443	10.64157
7.170832	94.12701	10.64155
7.179168	94.21319	10.64157
7.1875	94.29649	10.64157
7.195832	94.37957	10.64154
7.204168	94.46525	10.6415
7.2125	94.55074	10.64137
7.220834	94.63212	10.64129
7.229166	94.71845	10.64125
7.2375	94.80095	10.64127
7.245834	94.88543	10.64127
7.254166	94.96889	10.64124
7.2625	95.05291	10.6412
7.270834	95.13756	10.64114
7.279166	95.22129	10.64113
7.2875	95.30503	10.64112
7.295832	95.38874	10.64116
7.304168	95.47444	10.64117
7.3125	95.5546	10.64117
7.320832	95.63934	10.64117
7.329168	95.72362	10.64116
7.3375	95.80618	10.64116
7.345834	95.88924	10.64116
7.354166	95.97484	10.64123
7.3625	96.05851	10.64122
7.370834	96.14031	10.6412
7.379166	96.22704	10.64121
7.3875	96.3077	10.64119
7.395834	96.39056	10.64113
7.404166	96.47951	10.64106
7.4125	96.56153	10.64104
7.420832	96.64494	10.64101
7.429168	96.73064	10.64098
7.4375	96.81562	10.64097
7.445832	96.89629	10.64093
7.454168	96.98358	10.64089
7.4625	97.06501	10.64086
7.470834	97.14991	10.64086
7.479166	97.23188	10.6409
7.4875	97.33061	10.64096
7.495834	97.41712	10.64096
7.504166	97.49732	10.64096
7.5125	97.5838	10.64097
7.520834	97.66293	10.64093
7.529166	97.73522	10.64095
7.5375	97.81951	10.64096
7.545832	97.90379	10.64095
7.554168	97.98616	10.64092
7.5625	98.07059	10.64088
7.570832	98.15374	10.64086
7.579168	98.23902	10.64084
7.5875	98.32329	10.64081
7.595834	98.40703	10.64072
7.604166	98.49194	10.64069
7.6125	98.57619	10.64068
7.620834	98.6585	10.64066
7.629166	98.74125	10.64065
7.6375	98.82472	10.64061
7.645834	98.90853	10.64059
7.654166	98.99424	10.64053
7.6625	99.07989	10.64049
7.670832	99.16447	10.64046
7.679168	99.24794	10.64048
7.6875	99.33201	10.64047
7.695832	99.41376	10.64044
7.704168	99.49916	10.64041
7.7125	99.58442	10.64039
7.720834	99.66738	10.64043
7.729166	99.75139	10.64044
7.7375	99.83574	10.64042
7.745834	99.91786	10.64042
7.754166	100.0037	10.64042
7.7625	100.087	10.64041
7.770834	100.1697	10.64037
7.779166	100.2618	10.64034
7.7875	100.3527	10.64031
7.795832	100.4373	10.64028
7.804168	100.5215	10.64019
7.8125	100.6086	10.64014
7.820832	100.6905	10.64012
7.829168	100.7738	10.64006
7.8375	100.8569	10.64002
7.845834	100.9382	10.63998
7.854166	101.0258	10.63996
7.8625	101.108	10.63995
7.870834	101.1893	10.63995
7.879166	101.2726	10.63993
7.8875	101.3595	10.6399
7.895834	101.4453	10.6399
7.904166	101.5264	10.63991
7.9125	101.6108	10.63993
7.920832	101.6954	10.63994
7.929168	101.7737	10.63994
7.9375	101.8497	10.63993
7.945832	101.9361	10.63992
7.954168	102.0212	10.63992
7.9625	102.1041	10.63993
7.970834	102.1903	10.63996
7.979166	102.2683	10.63992
7.9875	102.3568	10.6399
7.995834	102.4375	10.63983
8.004166	102.5228	10.63977
8.0125	102.6079	10.63974
8.020832	102.6916	10.6397
8.029166	102.7761	10.63965
8.0375	102.8601	10.63961
8.045834	102.9437	10.63954
8.054168	103.0277	10.63947
8.0625	103.1081	10.6394
8.070832	103.1962	10.63931
8.079166	103.28	10.63928
8.0875	103.3626	10.63924
8.095834	103.4485	10.63919
8.104168	103.5292	10.63916
8.1125	103.6157	10.63909
8.120834	103.7014	10.63907
8.129166	103.7869	10.639
8.1375	103.8692	10.63898
8.145832	103.9564	10.63898
8.154166	104.0354	10.639
8.1625	104.1232	10.639
8.170834	104.2082	10.639
8.179168	104.2917	10.63898
8.1875	104.3765	10.63895
8.195832	104.4675	10.63896
8.204166	104.5478	10.63892
8.2125	104.6285	10.63894
8.220834	104.7098	10.6389
8.229168	104.7982	10.63885
8.2375	104.8783	10.63883
8.245834	104.9666	10.63883
8.254166	105.0479	10.63882
8.2625	105.133	10.63882
8.270832	105.2137	10.6388
8.279166	105.3	10.63881
8.2875	105.3849	10.63882
8.295834	105.4728	10.63877
8.304168	105.5519	10.63877
8.3125	105.6385	10.6388
8.320832	105.7217	10.63877
8.329166	105.8056	10.63874
8.3375	105.8895	10.63869
8.345834	105.9732	10.63863
8.354168	106.061	10.63861
8.3625	106.143	10.63857
8.370834	106.2266	10.63853
8.379166	106.3098	10.63853
8.3875	106.3984	10.63849
8.395832	106.4802	10.63844
8.404166	106.5623	10.63842
8.4125	106.6481	10.63838
8.420834	106.7322	10.63835
8.429168	106.8156	10.63835
8.4375	106.9008	10.63833
8.445832	106.984	10.63833
8.454166	107.0692	10.6383
8.4625	107.1518	10.63826
8.470834	107.2396	10.63826
8.479168	107.3222	10.63822
8.4875	107.4076	10.63817
8.495834	107.4898	10.63814
8.504166	107.5724	10.63812
8.5125	107.6572	10.63808
8.520832	107.7413	10.63802
8.529166	107.8286	10.63794
8.5375	107.9105	10.6379
8.545834	107.994	10.63786
8.554168	108.0788	10.63781
8.5625	108.1626	10.63782
8.570832	108.2471	10.63779
8.579166	108.3326	10.63776
8.5875	108.4146	10.63772
8.595834	108.5002	10.63772
8.604168	108.5862	10.63775
8.6125	108.6692	10.63775
8.620834	108.7513	10.63772
8.629166	108.8369	10.63769
8.6375	108.9228	10.63766
8.645832	109.006	10.63762
8.654166	109.0894	10.6376
8.6625	109.1746	10.63758
8.670834	109.2586	10.63754
8.679168	109.3446	10.63748
8.6875	109.4263	10.63742
8.695832	109.5102	10.63738
8.704166	109.5937	10.63736
8.7125	109.6809	10.63734
8.720834	109.7626	10.63733
8.729168	109.8507	10.63727
8.7375	109.9331	10.63719
8.745834	110.019	10.63713
8.754166	110.1116	10.63709
8.7625	110.1995	10.63705
8.770832	110.2731	10.63699
8.779166	110.3588	10.63693
8.7875	110.4392	10.63688
8.795834	110.5252	10.63681
8.804168	110.6079	10.63673
8.8125	110.6919	10.63667
8.820832	110.7738	10.63664
8.829166	110.8593	10.63664
8.8375	110.9442	10.63662
8.845834	111.0308	10.63658
8.854168	111.1124	10.63657
8.8625	111.1978	10.63659
8.870834	111.2828	10.63659
8.879166	111.3684	10.63658
8.8875	111.4482	10.63656
8.895832	111.5372	10.63657
8.904166	111.6189	10.63657
8.9125	111.7053	10.63654
8.920834	111.7892	10.6365
8.929168	111.8725	10.63647
8.9375	111.956	10.63636
8.945832	112.0416	10.63631
8.954166	112.1251	10.63625
8.9625	112.2111	10.63622
8.970834	112.2989	10.6362
8.979168	112.3776	10.63617
8.9875	112.4791	10.63613
8.995834	112.5611	10.63608
9.004166	112.6459	10.63606
9.0125	112.7296	10.63601
9.020832	112.8024	10.63596
9.029166	112.8856	10.63592
9.0375	112.971	10.63592
9.045834	113.0521	10.63584
9.054168	113.1407	10.63581
9.0625	113.2242	10.63578
9.070832	113.3063	10.63576
9.079166	113.3908	10.63575
9.0875	113.475	10.63569
9.095834	113.5594	10.63566
9.104168	113.6464	10.6357
9.1125	113.7278	10.63566
9.120834	113.8112	10.6356
9.129166	113.8973	10.6356
9.1375	113.9819	10.63557
9.145832	114.0679	10.63552
9.154166	114.1514	10.63546
9.1625	114.2364	10.63541
9.170834	114.3222	10.63539
9.179168	114.4038	10.63537
9.1875	114.4884	10.63534
9.195832	114.5712	10.63529
9.204166	114.658	10.63522
9.2125	114.7406	10.6352
9.220834	114.8258	10.63514
9.229168	114.909	10.6351
9.2375	114.9955	10.63506
9.245834	115.0777	10.63503
9.254166	115.1623	10.63499
9.2625	115.249	10.63495
9.270832	115.332	10.6349
9.279166	115.4178	10.63488
9.2875	115.5028	10.63489
9.295834	115.5839	10.63484
9.304168	115.669	10.63481
9.3125	115.7531	10.63477
9.320832	115.8361	10.63468
9.329166	115.9218	10.63466
9.3375	116.0074	10.63467
9.345834	116.089	10.63462
9.354168	116.1762	10.63462
9.3625	116.2675	10.63456
9.370834	116.3558	10.63449
9.379166	116.4412	10.63444
9.3875	116.5257	10.63437
9.395832	116.6088	10.63434
9.404166	116.6947	10.63436
9.4125	116.777	10.63427
9.420834	116.8636	10.63417
9.429168	116.942	10.63415
9.4375	117.0184	10.63408
9.445832	117.1018	10.63406
9.454166	117.1841	10.63406
9.4625	117.2704	10.63404
9.470834	117.3538	10.63403
9.479168	117.4406	10.63399
9.4875	117.5216	10.63393
9.495834	117.6081	10.63392
9.504166	117.6938	10.63388
9.5125	117.7761	10.63384
9.520832	117.8598	10.63377
9.529166	117.9469	10.63368
9.5375	118.0292	10.63358
9.545834	118.1119	10.63356
9.554168	118.1984	10.63347
9.5625	118.2822	10.63343
9.570832	118.3753	10.6334
9.579166	118.4619	10.63336
9.5875	118.5468	10.63335
9.595834	118.6322	10.63328
9.604168	118.7094	10.63324
9.6125	118.7993	10.63322
9.620834	118.8813	10.6332
9.629166	118.9673	10.6331
9.6375	119.0546	10.63308
9.645832	119.1278	10.63305
9.654166	119.2071	10.63299
9.6625	119.2921	10.6329
9.670834	119.3739	10.63281
9.679168	119.4605	10.63276
9.6875	119.5438	10.63274
9.695832	119.6302	10.63268
9.704166	119.7138	10.63263
9.7125	119.7963	10.6326
9.720834	119.8812	10.63255
9.729168	119.9667	10.63248
9.7375	120.0511	10.63244
9.745834	120.1359	10.6324
9.754166	120.2179	10.63238
9.7625	120.3017	10.63233
9.770832	120.388	10.63228
9.779166	120.4716	10.63224
9.7875	120.5553	10.63221
9.795834	120.6379	10.63216
9.804168	120.7234	10.63209
9.8125	120.8095	10.63205
9.820832	120.896	10.632
9.829166	120.9792	10.63193
9.8375	121.0622	10.63184
9.845834	121.1455	10.63179
9.854168	121.2307	10.6317
9.8625	121.3144	10.63163
9.870834	121.4	10.63158
9.879166	121.4842	10.63154
9.8875	121.5694	10.63152
9.895832	121.6506	10.63148
9.904166	121.7374	10.63144
9.9125	121.8304	10.63141
9.920834	121.9134	10.63136
9.929168	121.9864	10.63132
9.9375	122.0698	10.63131
9.945832	122.1564	10.63128
9.954166	122.2476	10.63119
9.9625	122.326	10.6311
9.970834	122.4081	10.63104
9.979168	122.4938	10.63094
9.9875	122.5858	10.63084
9.995834	122.6727	10.63079
10.00417	122.7603	10.63074
10.0125	122.8433	10.63069
10.02083	122.928	10.63064
10.02917	123.0036	10.63054
10.0375	123.0843	10.63051
10.04583	123.1691	10.63048
10.05417	123.2517	10.63043
10.0625	123.3337	10.63041
10.07083	123.4204	10.63039
10.07917	123.5054	10.63033
10.0875	123.5884	10.63029
10.09583	123.6719	10.63029
10.10417	123.7541	10.63018
10.1125	123.8397	10.6302
10.12083	123.9256	10.63015
10.12917	124.0108	10.63005
10.1375	124.0934	10.62999
10.14583	124.178	10.62992
10.15417	124.2622	10.62985
10.1625	124.3434	10.62978
10.17083	124.4338	10.62971
10.17917	124.5119	10.62961
10.1875	124.597	10.62962
10.19583	124.6817	10.62949
10.20417	124.7683	10.62943
10.2125	124.8501	10.6294
10.22083	124.9316	10.62937
10.22917	125.0199	10.62932
10.2375	125.1022	10.6293
10.24583	125.186	10.62926
10.25417	125.2684	10.62922
10.2625	125.3545	10.62917
10.27083	125.4365	10.62912
10.27917	125.5246	10.6291
10.2875	125.6049	10.62907
10.29583	125.6903	10.62902
10.30417	125.7767	10.62894
10.3125	125.8594	10.62889
10.32083	125.9429	10.62882
10.32917	126.0272	10.62879
10.3375	126.1096	10.62872
10.34583	126.1978	10.62865
10.35417	126.2789	10.62858
10.3625	126.3634	10.62852
10.37083	126.4489	10.62845
10.37917	126.5334	10.6284
10.3875	126.6189	10.62834
10.39583	126.7018	10.62829
10.40417	126.787	10.62821
10.4125	126.8724	10.62814
10.42083	126.9557	10.62813
10.42917	127.0395	10.62805
10.4375	127.124	10.62798
10.44583	127.209	10.62793
10.45417	127.292	10.62789
10.4625	127.375	10.62783
10.47083	127.4592	10.62779
10.47917	127.5497	10.62775
10.4875	127.6278	10.62771
10.49584	127.7098	10.62763
10.50416	127.7964	10.62752
10.5125	127.8822	10.62746
10.52083	127.9619	10.6274
10.52916	128.0478	10.62731
10.5375	128.133	10.62722
10.54584	128.2179	10.6271
10.55417	128.2991	10.62699
10.5625	128.383	10.62687
10.57083	128.4699	10.62676
10.57916	128.5532	10.62663
10.5875	128.6387	10.62654
10.59584	128.722	10.62649
10.60417	128.8037	10.6264
10.6125	128.8885	10.62628
10.62084	128.9728	10.62619
10.62916	129.0522	10.62612
10.6375	129.1405	10.62608
10.64583	129.2233	10.62607
10.65416	129.309	10.62603
10.6625	129.3899	10.62602
10.67084	129.4776	10.626
10.67917	129.5638	10.62593
10.6875	129.6433	10.62585
10.69583	129.7295	10.62577
10.70416	129.8141	10.62569
10.7125	129.8974	10.62561
10.72084	129.979	10.62553
10.72917	130.066	10.62542
10.7375	130.1514	10.62534
10.74584	130.2351	10.62528
10.75416	130.3169	10.62521
10.7625	130.4031	10.62516
10.77083	130.4875	10.62514
10.77916	130.5711	10.62514
10.7875	130.6551	10.62514
10.79584	130.7399	10.6251
10.80417	130.8239	10.62504
10.8125	130.9103	10.62501
10.82083	130.9934	10.62498
10.82916	131.0741	10.6249
10.8375	131.1567	10.62485
10.84584	131.2425	10.62477
10.85417	131.3316	10.6247
10.8625	131.4244	10.62461
10.87084	131.5064	10.62451
10.87916	131.5913	10.62446
10.8875	131.6766	10.6244
10.89583	131.7608	10.62434
10.90416	131.8423	10.62423
10.9125	131.9267	10.62416
10.92084	131.9989	10.62404
10.92917	132.0804	10.62394
10.9375	132.1656	10.62383
10.94583	132.2484	10.62374
10.95416	132.3361	10.62366
10.9625	132.417	10.62357
10.97084	132.5043	10.62349
10.97917	132.5884	10.62342
10.9875	132.6681	10.62338
10.99584	132.756	10.62333
11.00416	132.8401	10.62331
11.0125	132.9253	10.62329
11.02083	133.0079	10.62328
11.02916	133.0932	10.62322
11.0375	133.1744	10.62318
11.04584	133.2586	10.62309
11.05417	133.3442	10.623
11.0625	133.426	10.62289
11.07083	133.5141	10.62278
11.07916	133.5931	10.62267
11.0875	133.6812	10.62254
11.09584	133.7704	10.62244
11.10417	133.8484	10.62235
11.1125	133.9314	10.62222
11.12084	134.0164	10.62212
11.12916	134.0979	10.62208
11.1375	134.1816	10.622
11.14583	134.2671	10.62194
11.15416	134.3525	10.62191
11.1625	134.4365	10.62187
11.17084	134.5198	10.62186
11.17917	134.6105	10.6218
11.1875	134.6868	10.62172
11.19583	134.7702	10.62169
11.20416	134.8542	10.62164
11.2125	134.9428	10.62156
11.22084	135.0222	10.62152
11.22917	135.1072	10.62146
11.2375	135.1951	10.62137
11.24584	135.278	10.62132
11.25416	135.364	10.62124
11.2625	135.4439	10.62117
11.27083	135.5319	10.62111
11.27916	135.6156	10.62107
11.2875	135.7002	10.62099
11.29584	135.7808	10.62092
11.30417	135.8664	10.62086
11.3125	135.9507	10.6208
11.32083	136.0349	10.62072
11.32916	136.1165	10.6206
11.3375	136.1982	10.62053
11.34584	136.2825	10.62044
11.35417	136.3663	10.62037
11.3625	136.4514	10.62029
11.37084	136.5365	10.62023
11.37916	136.6182	10.62016
11.3875	136.7036	10.62006
11.39583	136.7849	10.62
11.40416	136.8724	10.61992
11.4125	136.9634	10.61985
11.42084	137.0514	10.61975
11.42917	137.1344	10.6197
11.4375	137.2199	10.61964
11.44583	137.3007	10.6195
11.45416	137.3834	10.61944
11.4625	137.459	10.61935
11.47084	137.5423	10.61927
11.47917	137.6244	10.61917
11.4875	137.7154	10.61909
11.49584	137.8048	10.61902
11.50416	137.8786	10.61892
11.5125	137.9614	10.61884
11.52083	138.0454	10.61872
11.52916	138.1286	10.61866
11.5375	138.2114	10.61854
11.54584	138.2982	10.61845
11.55417	138.381	10.61834
11.5625	138.4657	10.61819
11.57083	138.5493	10.61808
11.57916	138.6304	10.61796
11.5875	138.7167	10.61788
11.59584	138.8018	10.6178
11.60417	138.8834	10.61772
11.6125	138.9688	10.61765
11.62084	139.0521	10.6176
11.62916	139.136	10.61752
11.6375	139.2215	10.61753
11.64583	139.3142	10.61747
11.65416	139.4015	10.61743
11.6625	139.4837	10.6174
11.67084	139.5696	10.61736
11.67917	139.6512	10.61729
11.6875	139.7312	10.61725
11.69583	139.8086	10.61717
11.70416	139.8883	10.61709
11.7125	139.9746	10.61707
11.72084	140.0599	10.61696
11.72917	140.1388	10.61692
11.7375	140.229	10.61684
11.74584	140.3106	10.61673
11.75416	140.3958	10.61664
11.7625	140.4772	10.61652
11.77083	140.5612	10.6164
11.77916	140.6441	10.61634
11.7875	140.7306	10.61627
11.79584	140.8132	10.61617
11.80417	140.897	10.61607
11.8125	140.9806	10.61596
11.82083	141.0663	10.61588
11.82916	141.144	10.61579
11.8375	141.229	10.61572
11.84584	141.3142	10.61569
11.85417	141.3968	10.61565
11.8625	141.4814	10.61555
11.87084	141.5631	10.61545
11.87916	141.6479	10.61537
11.8875	141.7298	10.61529
11.89583	141.8132	10.61525
11.90416	141.8965	10.61517
11.9125	141.9797	10.61511
11.92084	142.0641	10.61498
11.92917	142.1468	10.61485
11.9375	142.2335	10.61472
11.94583	142.3159	10.61462
11.95416	142.3973	10.61452
11.9625	142.4822	10.61446
11.97084	142.5647	10.61434
11.97917	142.6517	10.61414
11.9875	142.7462	10.61407
11.99584	142.8261	10.61395
12.00416	142.9112	10.61387
12.0125	142.9898	10.61378
12.02083	143.0641	10.61372
12.02916	143.1519	10.61364
12.0375	143.2317	10.61357
12.04584	143.3153	10.61348
12.05417	143.3989	10.61343
12.0625	143.4828	10.61346
12.07083	143.562	10.61339
12.07916	143.6485	10.61333
12.0875	143.7308	10.6133
12.09584	143.8137	10.61322
12.10417	143.9048	10.61314
12.1125	143.9834	10.61306
12.12084	144.0659	10.61296
12.12916	144.1489	10.61286
12.1375	144.2312	10.61278
12.14583	144.3171	10.61268
12.15416	144.3992	10.61257
12.1625	144.4839	10.61248
12.17084	144.5659	10.6124
12.17917	144.6488	10.61233
12.1875	144.7322	10.61224
12.19583	144.8177	10.61217
12.20416	144.9033	10.61212
12.2125	144.9837	10.61204
12.22084	145.0676	10.61192
12.22917	145.1483	10.61184
12.2375	145.2311	10.61175
12.24584	145.3163	10.61168
12.25416	145.4012	10.61159
12.2625	145.4836	10.61152
12.27083	145.5674	10.61146
12.27916	145.6505	10.61144
12.2875	145.7344	10.61135
12.29584	145.8158	10.61124
12.30417	145.8984	10.61117
12.3125	145.9816	10.61109
12.32083	146.0703	10.61101
12.32916	146.1517	10.61091
12.3375	146.2336	10.61081
12.34584	146.3194	10.61069
12.35417	146.4	10.61061
12.3625	146.485	10.61045
12.37084	146.5674	10.61031
12.37916	146.6511	10.61022
12.3875	146.734	10.61013
12.39583	146.8177	10.61
12.40416	146.9089	10.60988
12.4125	146.9966	10.60978
12.42084	147.0785	10.60967
12.42917	147.161	10.60957
12.4375	147.2427	10.60944
12.44583	147.3291	10.60936
12.45416	147.4022	10.60932
12.4625	147.4832	10.60931
12.47084	147.5682	10.60922
12.47917	147.6494	10.60915
12.4875	147.7321	10.60909
12.49584	147.8191	10.60904
12.50416	147.9002	10.60898
12.5125	147.9904	10.60891
12.52083	148.0694	10.60883
12.52916	148.1498	10.60871
12.5375	148.2378	10.6086
12.54584	148.3162	10.60842
12.55417	148.4009	10.60833
12.5625	148.4845	10.60823
12.57083	148.5702	10.60814
12.57916	148.6485	10.60802
12.5875	148.7326	10.60789
12.59584	148.8159	10.60779
12.60417	148.8993	10.60768
12.6125	148.984	10.60758
12.62084	149.0713	10.60746
12.62916	149.1599	10.60737
12.6375	149.231	10.60724
12.64583	149.3137	10.60708
12.65416	149.3991	10.60695
12.6625	149.479	10.60683
12.67084	149.5639	10.60673
12.67917	149.6447	10.60662
12.6875	149.7291	10.60654
12.69583	149.8115	10.60648
12.70416	149.8956	10.60642
12.7125	149.9789	10.60633
12.72084	150.0592	10.60629
12.72917	150.1451	10.60626
12.7375	150.2302	10.60619
12.74584	150.3118	10.60613
12.75416	150.3936	10.60608
12.7625	150.476	10.60601
12.77083	150.5591	10.60592
12.77916	150.6441	10.60582
12.7875	150.7287	10.60571
12.79584	150.8102	10.60562
12.80417	150.8919	10.60551
12.8125	150.9739	10.60544
12.82083	151.0585	10.60538
12.82916	151.1414	10.60529
12.8375	151.225	10.60518
12.84584	151.3084	10.60509
12.85417	151.3851	10.60498
12.8625	151.4696	10.60487
12.87083	151.5514	10.60476
12.87917	151.6352	10.60468
12.8875	151.7174	10.60462
12.89583	151.8034	10.60449
12.90416	151.8811	10.60437
12.9125	151.9651	10.60428
12.92084	152.0462	10.60418
12.92917	152.1305	10.60406
12.9375	152.2139	10.604
12.94583	152.2946	10.60389
12.95416	152.3784	10.60384
12.9625	152.4619	10.60374
12.97084	152.5398	10.60363
12.97917	152.6257	10.60357
12.9875	152.7071	10.60349
12.99583	152.7878	10.6034
13.00417	152.8708	10.60333
13.0125	152.9531	10.60325
13.02083	153.0368	10.60314
13.02916	153.1195	10.6031
13.0375	153.2005	10.603
13.04584	153.2847	10.60295
13.05417	153.3638	10.60288
13.0625	153.4485	10.60277
13.07083	153.5292	10.60266
13.07916	153.6132	10.60256
13.0875	153.6958	10.60246
13.09584	153.7752	10.60237
13.10417	153.8551	10.60229
13.1125	153.9385	10.6022
13.12083	154.0222	10.6021
13.12917	154.1025	10.60197
13.1375	154.1856	10.60187
13.14583	154.2736	10.60176
13.15416	154.3628	10.60166
13.1625	154.4404	10.60151
13.17084	154.5236	10.6014
13.17917	154.6036	10.60127
13.1875	154.6883	10.60115
13.19583	154.7684	10.60104
13.20416	154.8534	10.60098
13.2125	154.9244	10.60088
13.22084	155.002	10.60079
13.22917	155.0829	10.60074
13.2375	155.1631	10.60068
13.24583	155.2432	10.60064
13.25417	155.3265	10.60058
13.2625	155.4096	10.60056
13.27083	155.4874	10.60051
13.27916	155.569	10.60046
13.2875	155.6496	10.60042
13.29584	155.7311	10.60041
13.30417	155.8069	10.6004
13.3125	155.8902	10.60039
13.32083	155.9694	10.60047
13.32916	156.0608	10.60054
13.3375	156.144	10.60064
13.34584	156.2245	10.60079
13.35417	156.3051	10.601
13.3625	156.3694	10.60123
13.37083	156.4524	10.60151
13.37917	156.5304	10.60189
13.3875	156.6126	10.60226
13.39583	156.6937	10.60272
13.40416	156.7694	10.60315
13.4125	156.85	10.6037
13.42084	156.9309	10.60432
13.42917	157.01	10.60499
13.4375	157.0896	10.60574
13.44583	157.1707	10.60657
13.45416	157.2492	10.60748
13.4625	157.3296	10.60839
13.47084	157.4099	10.60943
13.47917	157.4915	10.61046
13.4875	157.5684	10.61151
13.49583	157.6505	10.61256
13.50417	157.7299	10.61358
13.5125	157.8078	10.61452
13.52083	157.8874	10.6154
13.52916	157.9706	10.61623
13.5375	158.0474	10.61686
13.54584	158.127	10.61734
13.55417	158.2077	10.61772
13.5625	158.29	10.61799
13.57083	158.3692	10.6181
13.57916	158.4471	10.61809
13.5875	158.5276	10.61793
13.59584	158.6096	10.61768
13.60417	158.6869	10.61729
13.6125	158.7687	10.61674
13.62083	158.8522	10.61617
13.62917	158.9344	10.61555
13.6375	159.0131	10.61484
13.64583	159.092	10.61407
13.65416	159.1773	10.61332
13.6625	159.2576	10.61251
13.67084	159.3484	10.61169
13.67917	159.4287	10.61089
13.6875	159.504	10.61014
13.69583	159.5874	10.60936
13.70416	159.6706	10.60858
13.7125	159.7505	10.60782
13.72084	159.8302	10.6071
13.72917	159.9145	10.60636
13.7375	160.0019	10.60566
13.74583	160.0849	10.60492
13.75417	160.1672	10.6043
13.7625	160.2508	10.60363
13.77083	160.3373	10.60291
13.77916	160.4185	10.60226
13.7875	160.5062	10.60163
13.79584	160.5901	10.60101
13.80417	160.6735	10.60039
13.8125	160.7593	10.59977
13.82083	160.8447	10.59915
13.82916	160.9329	10.59857
13.8375	161.0149	10.59791
13.84584	161.0991	10.59731
13.85417	161.1865	10.59673
13.8625	161.2732	10.59612
13.87083	161.3556	10.59551
13.87917	161.4446	10.5949
13.8875	161.5314	10.59428
13.89583	161.6147	10.59366
13.90416	161.7031	10.59302
13.9125	161.7906	10.59238
13.92084	161.877	10.59184
13.92917	161.9631	10.59121
13.9375	162.0485	10.59059
13.94583	162.1339	10.59
13.95416	162.2241	10.58942
13.9625	162.3092	10.58884
13.97084	162.3956	10.5883
13.97917	162.4838	10.58777
13.9875	162.5734	10.58729
13.99583	162.6574	10.58678
14.00417	162.7462	10.58624
14.0125	162.8305	10.58579
14.02083	162.9181	10.58533
14.02916	163.0066	10.58488
14.0375	163.0951	10.58448
14.04584	163.1807	10.58404
14.05417	163.2672	10.58361
14.0625	163.3539	10.5832
14.07083	163.4423	10.58278
14.07916	163.527	10.58242
14.0875	163.6194	10.582
14.09584	163.7055	10.58158
14.10417	163.792	10.58115
14.1125	163.8786	10.58076
14.12083	163.9688	10.58036
14.12917	164.055	10.57998
14.1375	164.1448	10.5796
14.14583	164.2288	10.57924
14.15416	164.3169	10.57886
14.1625	164.4027	10.5785
14.17084	164.4936	10.57812
14.17917	164.5821	10.57775
14.1875	164.6711	10.5774
14.19583	164.7561	10.577
14.20416	164.8409	10.57658
14.2125	164.9313	10.57619
14.22084	165.0184	10.57578
14.22917	165.107	10.57538
14.2375	165.1925	10.575
14.24583	165.2824	10.57463
14.25417	165.3679	10.57429
14.2625	165.4557	10.57396
14.27083	165.5437	10.57365
14.27916	165.6362	10.57338
14.2875	165.7189	10.57308
14.29584	165.8066	10.5728
14.30417	165.8941	10.57256
14.3125	165.983	10.57222
14.32083	166.0718	10.57194
14.32916	166.157	10.57169
14.3375	166.2444	10.57138
14.34584	166.3319	10.57108
14.35417	166.4185	10.5708
14.3625	166.5051	10.57051
14.37083	166.6054	10.57024
14.37917	166.6884	10.56998
14.3875	166.7816	10.56969
14.39583	166.8679	10.56949
14.40416	166.9538	10.5692
14.4125	167.0382	10.56889
14.42084	167.1191	10.56867
14.42917	167.2066	10.56842
14.4375	167.2941	10.56813
14.44583	167.3808	10.56781
14.45416	167.47	10.56754
14.4625	167.5556	10.56726
14.47084	167.6434	10.56698
14.47917	167.7295	10.56674
14.4875	167.8174	10.56656
14.49583	167.9051	10.56634
14.50417	167.9922	10.56606
14.5125	168.0793	10.56582
14.52083	168.168	10.56559
14.52916	168.2551	10.56538
14.5375	168.3433	10.56516
14.54584	168.4261	10.56496
14.55417	168.5171	10.5648
14.5625	168.5957	10.56457
14.57083	168.686	10.56429
14.57916	168.774	10.56409
14.5875	168.861	10.56392
14.59584	168.9489	10.56375
14.60417	169.0344	10.56359
14.6125	169.1214	10.56342
14.62083	169.2125	10.56323
14.62917	169.2966	10.56302
14.6375	169.3833	10.56277
14.64583	169.4667	10.5626
14.65416	169.5563	10.56245
14.6625	169.6436	10.56224
14.67084	169.7283	10.56204
14.67917	169.817	10.56183
14.6875	169.9032	10.56158
14.69583	169.9883	10.56134
14.70416	170.0763	10.56116
14.7125	170.1631	10.56099
14.72084	170.2497	10.56081
14.72917	170.3364	10.56061
14.7375	170.4233	10.56039
14.74583	170.5078	10.5602
14.75417	170.5948	10.56002
14.7625	170.6832	10.55986
14.77083	170.7683	10.55968
14.77916	170.8524	10.55956
14.7875	170.9399	10.55937
14.79584	171.0246	10.55916
14.80417	171.1151	10.55901
14.8125	171.1984	10.55883
14.82083	171.2856	10.55865
14.82916	171.3734	10.55844
14.8375	171.4576	10.5582
14.84584	171.5449	10.55802
14.85417	171.6308	10.55784
14.8625	171.7161	10.55766
14.87083	171.8046	10.55747
14.87917	171.8888	10.55728
14.8875	171.9783	10.55708
14.89583	172.0646	10.55691
14.90416	172.1494	10.55674
14.9125	172.2356	10.55657
14.92084	172.3231	10.55646
14.92917	172.406	10.55626
14.9375	172.4905	10.55608
14.94583	172.5784	10.5559
14.95416	172.6624	10.55575
14.9625	172.7508	10.5556
14.97084	172.8367	10.55544
14.97917	172.925	10.55527
14.9875	173.01	10.55511
14.99583	173.0944	10.55502
15.00417	173.178	10.55485
15.0125	173.2682	10.55467
15.02083	173.3534	10.55451
15.02916	173.4392	10.55431
15.0375	173.5216	10.55414
15.04584	173.612	10.55396
15.05417	173.6945	10.55376
15.0625	173.7799	10.55358
15.07083	173.8692	10.5534
15.07916	173.9544	10.55316
15.0875	174.0342	10.55299
15.09584	174.1236	10.55286
15.10417	174.2079	10.55271
15.1125	174.2959	10.55256
15.12083	174.3796	10.55239
15.12917	174.4613	10.55224
15.1375	174.5528	10.55214
15.14583	174.6355	10.55208
15.15416	174.7205	10.55195
15.1625	174.8079	10.55186
15.17084	174.8906	10.55176
15.17917	174.9792	10.55168
15.1875	175.0644	10.55157
15.19583	175.1458	10.55148
15.20416	175.2342	10.55139
15.2125	175.3213	10.5513
15.22084	175.4049	10.55117
15.22917	175.4906	10.55102
15.2375	175.5759	10.55092
15.24583	175.6609	10.55076
15.25417	175.7486	10.55064
15.2625	175.8338	10.55056
15.27083	175.9174	10.55044
15.27916	175.9998	10.55029
15.2875	176.0851	10.55015
15.29584	176.1722	10.55002
15.30417	176.2638	10.54988
15.3125	176.339	10.54972
15.32083	176.4287	10.54959
15.32916	176.5109	10.54946
15.3375	176.6054	10.54929
15.34584	176.6926	10.54908
15.35417	176.7777	10.54891
15.3625	176.8633	10.54878
15.37083	176.9478	10.54863
15.37917	177.0231	10.54846
15.3875	177.1069	10.54829
15.39583	177.1936	10.54811
15.40416	177.2779	10.54795
15.4125	177.3612	10.54779
15.42084	177.4462	10.54764
15.42917	177.5324	10.54753
15.4375	177.6185	10.5474
15.44583	177.7028	10.54728
15.45416	177.7874	10.5471
15.4625	177.8721	10.54701
15.47084	177.9574	10.5469
15.47917	178.0399	10.54679
15.4875	178.1266	10.54666
15.49583	178.211	10.54655
15.50417	178.2973	10.54644
15.5125	178.3775	10.54628
15.52083	178.4656	10.54611
15.52916	178.5516	10.54604
15.5375	178.6372	10.54596
15.54584	178.7224	10.54581
15.55417	178.807	10.54572
15.5625	178.8919	10.54562
15.57083	178.9742	10.54549
15.57916	179.0608	10.54537
15.5875	179.1446	10.54526
15.59584	179.2286	10.54514
15.60417	179.3144	10.54503
15.6125	179.3989	10.54485
15.62083	179.4864	10.54476
15.62917	179.5666	10.54465
15.6375	179.651	10.54452
15.64583	179.7374	10.54438
15.65416	179.8234	10.54426
15.6625	179.9058	10.54418
15.67084	179.9922	10.54407
15.67917	180.0761	10.54399
15.6875	180.1618	10.54393
15.69583	180.2441	10.54385
15.70416	180.3296	10.54372
15.7125	180.4138	10.54362
15.72084	180.5001	10.54351
15.72917	180.5826	10.54343
15.7375	180.6684	10.54334
15.74583	180.7543	10.54318
15.75417	180.8395	10.54302
15.7625	180.9226	10.54284
15.77083	181.0075	10.5427
15.77916	181.0946	10.54257
15.7875	181.1782	10.54241
15.79584	181.2628	10.5423
15.80417	181.3472	10.54217
15.8125	181.4297	10.54208
15.82083	181.5179	10.54194
15.82916	181.6007	10.54184
15.8375	181.6841	10.54178
15.84584	181.7698	10.5417
15.85417	181.8566	10.54161
15.8625	181.938	10.54152
15.87083	182.0201	10.54144
15.87917	182.1063	10.54135
15.8875	182.1941	10.54127
15.89583	182.2743	10.54114
15.90416	182.3595	10.54103
15.9125	182.4474	10.54092
15.92084	182.5289	10.5408
15.92917	182.6153	10.5407
15.9375	182.6976	10.5406
15.94583	182.7806	10.54049
15.95416	182.8694	10.54036
15.9625	182.9492	10.54022
15.97084	183.0353	10.54007
15.97917	183.1211	10.53989
15.9875	183.2048	10.53978
15.99583	183.2879	10.53969
16.00417	183.3715	10.53955
16.0125	183.4555	10.53944
16.02084	183.5428	10.53932
16.02917	183.625	10.5392
16.0375	183.7087	10.53909
16.04584	183.7916	10.53896
16.05417	183.8812	10.53881
16.0625	183.9611	10.53877
16.07083	184.046	10.53863
16.07916	184.1304	10.5385
16.0875	184.2155	10.53843
16.09583	184.2999	10.53831
16.10416	184.3818	10.53818
16.1125	184.471	10.538
16.12083	184.5522	10.53789
16.12917	184.6389	10.53774
16.1375	184.7202	10.53764
16.14584	184.8085	10.53745
16.15417	184.8902	10.53737
16.1625	184.9725	10.53726
16.17084	185.057	10.53712
16.17917	185.1466	10.537
16.1875	185.2267	10.53691
16.19583	185.3129	10.53686
16.20416	185.3973	10.53678
16.2125	185.4817	10.53676
16.22083	185.5632	10.53673
16.22916	185.6498	10.53668
16.2375	185.7336	10.53657
16.24583	185.8205	10.5365
16.25417	185.901	10.53644
16.2625	185.9872	10.53636
16.27084	186.0715	10.53624
16.27917	186.1576	10.53605
16.2875	186.2393	10.53592
16.29584	186.3233	10.53578
16.30417	186.4086	10.53562
16.3125	186.4928	10.53557
16.32083	186.5772	10.53544
16.32916	186.6616	10.53532
16.3375	186.742	10.5352
16.34583	186.8356	10.53512
16.35416	186.9241	10.53504
16.3625	187.0093	10.53503
16.37083	187.0936	10.53494
16.37917	187.1776	10.53487
16.3875	187.2513	10.5348
16.39584	187.3339	10.53468
16.40417	187.4173	10.53462
16.4125	187.5041	10.53451
16.42084	187.5885	10.53442
16.42917	187.6709	10.53431
16.4375	187.7536	10.5342
16.44583	187.8396	10.53408
16.45416	187.9232	10.53398
16.4625	188.0096	10.53386
16.47083	188.0938	10.53373
16.47916	188.1772	10.53361
16.4875	188.2621	10.5335
16.49583	188.3475	10.53337
16.50417	188.4312	10.53329
16.5125	188.5143	10.53313
16.52084	188.6	10.53304
16.52917	188.6828	10.53296
16.5375	188.766	10.53287
16.54584	188.8496	10.53277
16.55417	188.9334	10.53267
16.5625	189.0181	10.53256
16.57083	189.1038	10.53247
16.57916	189.1835	10.53242
16.5875	189.2705	10.5323
16.59583	189.3561	10.53222
16.60416	189.4404	10.5321
16.6125	189.5249	10.53199
16.62083	189.6081	10.53188
16.62917	189.6922	10.53178
16.6375	189.7791	10.53168
16.64584	189.8602	10.5316
16.65417	189.9456	10.53146
16.6625	190.0288	10.53132
16.67084	190.1139	10.5312
16.67917	190.1983	10.5311
16.6875	190.2809	10.531
16.69583	190.3686	10.53086
16.70416	190.4535	10.53072
16.7125	190.5342	10.53061
16.72083	190.6197	10.53053
16.72916	190.7036	10.5304
16.7375	190.7867	10.53032
16.74583	190.8715	10.53024
16.75417	190.9584	10.53015
16.7625	191.0395	10.53006
16.77084	191.1261	10.52997
16.77917	191.2099	10.5299
16.7875	191.2944	10.52984
16.79584	191.3774	10.52974
16.80417	191.4592	10.5296
16.8125	191.5456	10.5295
16.82083	191.6303	10.5294
16.82916	191.7141	10.52925
16.8375	191.8003	10.52914
16.84583	191.8832	10.52909
16.85416	191.965	10.52896
16.8625	192.0527	10.52886
16.87083	192.1338	10.52877
16.87917	192.2188	10.52869
16.8875	192.3048	10.52858
16.89584	192.3873	10.52848
16.90417	192.4721	10.5284
16.9125	192.5643	10.5283
16.92084	192.6528	10.52815
16.92917	192.7351	10.52795
16.9375	192.8209	10.52786
16.94583	192.9049	10.52774
16.95416	192.9755	10.52758
16.9625	193.0621	10.52745
16.97083	193.1492	10.52731
16.97916	193.234	10.52719
16.9875	193.3141	10.52707
16.99583	193.3966	10.52699
17.00417	193.4839	10.52688
17.0125	193.5687	10.52694
17.02084	193.6517	10.52686
17.02917	193.7365	10.52678
17.0375	193.8218	10.52675
17.04584	193.9043	10.52668
17.05417	193.989	10.52664
17.0625	194.0741	10.52659
17.07083	194.1572	10.52654
17.07916	194.2396	10.52649
17.0875	194.3279	10.52648
17.09583	194.4101	10.52628
17.10416	194.4955	10.52622
17.1125	194.582	10.52612
17.12083	194.6617	10.52602
17.12917	194.7485	10.52594
17.1375	194.8336	10.52586
17.14584	194.9186	10.52578
17.15417	194.9994	10.52569
17.1625	195.0847	10.52557
17.17084	195.1697	10.52547
17.17917	195.2516	10.52539
17.1875	195.335	10.52527
17.19583	195.4198	10.52515
17.20416	195.5056	10.52504
17.2125	195.5885	10.5249
17.22083	195.6742	10.52475
17.22916	195.7568	10.52464
17.2375	195.8428	10.52449
17.24583	195.9275	10.5244
17.25417	196.0106	10.52431
17.2625	196.093	10.52422
17.27084	196.1774	10.52414
17.27917	196.2624	10.52408
17.2875	196.3461	10.52401
17.29584	196.4329	10.52395
17.30417	196.5158	10.52389
17.3125	196.5984	10.5238
17.32083	196.6854	10.52375
17.32916	196.7674	10.5237
17.3375	196.8529	10.5236
17.34583	196.9389	10.52351
17.35416	197.018	10.52342
17.3625	197.1061	10.52334
17.37083	197.1907	10.52325
17.37917	197.2752	10.52318
17.3875	197.359	10.52309
17.39584	197.4433	10.52299
17.40417	197.5265	10.52289
17.4125	197.6101	10.52277
17.42084	197.6948	10.52268
17.42917	197.7802	10.52258
17.4375	197.8621	10.52248
17.44583	197.9481	10.52237
17.45416	198.0312	10.52226
17.4625	198.1153	10.52216
17.47083	198.2012	10.52206
17.47916	198.2839	10.52196
17.4875	198.3701	10.52188
17.49583	198.4526	10.52178
17.50417	198.538	10.52166
17.5125	198.62	10.52158
17.52084	198.704	10.52148
17.52917	198.7884	10.5214
17.5375	198.8726	10.52131
17.54584	198.9564	10.52119
17.55417	199.0401	10.52108
17.5625	199.1285	10.52101
17.57083	199.211	10.52092
17.57916	199.2943	10.52083
17.5875	199.3763	10.52075
17.59583	199.459	10.52066
17.60416	199.5444	10.52057
17.6125	199.63	10.52048
17.62083	199.7148	10.5204
17.62917	199.7982	10.52035
17.6375	199.8836	10.52032
17.64584	199.9695	10.52023
17.65417	200.0498	10.52013
17.6625	200.1353	10.52005
17.67084	200.2198	10.51995
17.67917	200.3034	10.51986
17.6875	200.3852	10.51979
17.69583	200.4726	10.5197
17.70416	200.556	10.51963
17.7125	200.6362	10.51954
17.72083	200.725	10.51942
17.72916	200.8074	10.5193
17.7375	200.893	10.51924
17.74583	200.9779	10.51919
17.75417	201.0619	10.51915
17.7625	201.1454	10.51906
17.77084	201.2281	10.51898
17.77917	201.3158	10.5189
17.7875	201.3992	10.51879
17.79584	201.4825	10.51867
17.80417	201.5647	10.51859
17.8125	201.6488	10.51849
17.82083	201.7352	10.51836
17.82916	201.8214	10.51822
17.8375	201.9022	10.51808
17.84583	201.9852	10.51802
17.85416	202.0718	10.51791
17.8625	202.1571	10.51783
17.87083	202.2401	10.51774
17.87917	202.3238	10.51763
17.8875	202.4112	10.51754
17.89584	202.4943	10.51744
17.90417	202.5752	10.51737
17.9125	202.6581	10.5173
17.92084	202.7448	10.51717
17.92917	202.8268	10.51702
17.9375	202.9103	10.51689
17.94583	202.9938	10.51674
17.95416	203.0789	10.51664
17.9625	203.1654	10.51653
17.97083	203.25	10.51641
17.97916	203.3313	10.51632
17.9875	203.4155	10.5162
17.99583	203.5009	10.51608
18.00417	203.5856	10.51602
18.0125	203.6764	10.51596
18.02084	203.7635	10.51592
18.02917	203.8533	10.51589
18.0375	203.9361	10.51582
18.04584	204.0184	10.51577
18.05417	204.101	10.51566
18.0625	204.1848	10.5156
18.07083	204.2689	10.51554
18.07916	204.3532	10.51542
18.0875	204.4366	10.51527
18.09583	204.5227	10.5152
18.10416	204.6011	10.51509
18.1125	204.6806	10.51496
18.12083	204.7652	10.51486
18.12917	204.8489	10.51478
18.1375	204.9313	10.51474
18.14584	205.0168	10.51466
18.15417	205.1025	10.51458
18.1625	205.1868	10.51456
18.17084	205.2707	10.51453
18.17917	205.3534	10.51444
18.1875	205.4398	10.51439
18.19583	205.5241	10.51432
18.20416	205.6088	10.5142
18.2125	205.6904	10.51412
18.22083	205.7751	10.51404
18.22916	205.8596	10.51391
18.2375	205.9402	10.51378
18.24583	206.0273	10.51368
18.25417	206.1096	10.51359
18.2625	206.1954	10.51349
18.27084	206.2899	10.51343
18.27917	206.3735	10.51335
18.2875	206.4604	10.51332
18.29584	206.5427	10.51324
18.30417	206.6248	10.51314
18.3125	206.7077	10.51308
18.32083	206.7831	10.51302
18.32916	206.8672	10.51293
18.3375	206.9532	10.51292
18.34583	207.0326	10.51283
18.35416	207.119	10.5127
18.3625	207.2061	10.5126
18.37083	207.2899	10.51248
18.37917	207.3688	10.51237
18.3875	207.4551	10.51229
18.39584	207.5382	10.51222
18.40417	207.6248	10.51214
18.4125	207.7086	10.51207
18.42084	207.7968	10.51188
18.42917	207.8763	10.5118
18.4375	207.9631	10.51175
18.44583	208.0465	10.51166
18.45416	208.1298	10.51157
18.4625	208.2154	10.51148
18.47083	208.3002	10.51141
18.47916	208.3839	10.51133
18.4875	208.467	10.51124
18.49583	208.5512	10.51117
18.50417	208.6381	10.51116
18.5125	208.7201	10.51104
18.52084	208.8047	10.51089
18.52917	208.8854	10.51083
18.5375	208.9728	10.51079
18.54584	209.0541	10.51071
18.55417	209.1411	10.51056
18.5625	209.2276	10.51044
18.57083	209.3077	10.51035
18.57916	209.394	10.51022
18.5875	209.4896	10.51004
18.59583	209.5735	10.50995
18.60416	209.6581	10.50985
18.6125	209.7435	10.50975
18.62083	209.824	10.50961
18.62917	209.9004	10.50948
18.6375	209.9814	10.50939
18.64584	210.0691	10.50929
18.65417	210.1534	10.50918
18.6625	210.2358	10.50911
18.67084	210.3198	10.50905
18.67917	210.4033	10.50896
18.6875	210.4852	10.5089
18.69583	210.5706	10.50883
18.70416	210.6548	10.50874
18.7125	210.739	10.50871
18.72083	210.825	10.50866
18.72916	210.9065	10.50854
18.7375	210.9889	10.50844
18.74583	211.0758	10.50837
18.75417	211.1614	10.50832
18.7625	211.2453	10.50826
18.77084	211.33	10.50817
18.77917	211.4131	10.50807
18.7875	211.4949	10.50794
18.79584	211.591	10.50785
18.80417	211.6762	10.50776
18.8125	211.7604	10.50776
18.82083	211.8428	10.50771
18.82916	211.9274	10.50766
18.8375	212.0111	10.50756
18.84583	212.0967	10.50746
18.85416	212.1802	10.5074
18.8625	212.263	10.5073
18.87083	212.3474	10.50731
18.87917	212.4323	10.50723
18.8875	212.516	10.50716
18.89584	212.6018	10.50706
18.90417	212.6843	10.50697
18.9125	212.7672	10.50686
18.92084	212.84	10.5068
18.92917	212.9246	10.5068
18.9375	213.0092	10.50665
18.94583	213.093	10.50661
18.95416	213.1768	10.50649
18.9625	213.2602	10.50638
18.97083	213.3453	10.50628
18.97916	213.4315	10.50621
18.9875	213.5126	10.50611
18.99583	213.598	10.50602
19.00417	213.6805	10.5059
19.0125	213.7654	10.50575
19.02084	213.8493	10.50574
19.02917	213.9335	10.50565
19.0375	214.017	10.50554
19.04584	214.1	10.50548
19.05417	214.1869	10.50539
19.0625	214.271	10.50528
19.07083	214.3546	10.5052
19.07916	214.4381	10.5051
19.0875	214.5211	10.50502
19.09583	214.6096	10.5049
19.10416	214.6911	10.50478
19.1125	214.7755	10.50467
19.12083	214.8618	10.50456
19.12917	214.9444	10.50444
19.1375	215.0287	10.50435
19.14584	215.1113	10.50427
19.15417	215.1979	10.50419
19.1625	215.2804	10.50414
19.17084	215.3653	10.50405
19.17917	215.4475	10.50394
19.1875	215.5327	10.50385
19.19583	215.6177	10.50375
19.20416	215.702	10.50368
19.2125	215.7864	10.50361
19.22083	215.8706	10.50354
19.22916	215.9526	10.50346
19.2375	216.0348	10.50337
19.24583	216.1203	10.50328
19.25417	216.2043	10.50322
19.2625	216.2873	10.50318
19.27084	216.3745	10.50309
19.27917	216.4565	10.50304
19.2875	216.5411	10.50295
19.29584	216.6242	10.50286
19.30417	216.718	10.50276
19.3125	216.8048	10.50268
19.32083	216.8902	10.50259
19.32916	216.9717	10.50249
19.3375	217.0573	10.50239
19.34583	217.1398	10.50229
19.35416	217.2239	10.50221
19.3625	217.3138	10.50207
19.37083	217.3936	10.50196
19.37917	217.479	10.50187
19.3875	217.5627	10.50177
19.39584	217.6447	10.50161
19.40417	217.7302	10.50152
19.4125	217.8132	10.50143
19.42084	217.894	10.50134
19.42917	217.9696	10.50129
19.4375	218.0538	10.50119
19.44583	218.1411	10.5011
19.45416	218.2242	10.50105
19.4625	218.3084	10.50095
19.47083	218.3925	10.50088
19.47916	218.4759	10.50086
19.4875	218.5596	10.50073
19.49583	218.6447	10.5006
19.50417	218.7246	10.50053
19.5125	218.8132	10.50045
19.52084	218.8976	10.50036
19.52917	218.9824	10.50028
19.5375	219.0654	10.50021
19.54584	219.1473	10.50014
19.55417	219.23	10.50006
19.5625	219.3156	10.49993
19.57083	219.4018	10.49984
19.57916	219.4846	10.49983
19.5875	219.5688	10.49971
19.59583	219.6538	10.49954
19.60416	219.739	10.49944
19.6125	219.8233	10.49933
19.62083	219.9058	10.49923
19.62917	219.9879	10.49915
19.6375	220.0748	10.49906
19.64584	220.1566	10.49901
19.65417	220.2392	10.49896
19.6625	220.3244	10.49884
19.67084	220.4117	10.49878
19.67917	220.4952	10.49872
19.6875	220.5778	10.49863
19.69583	220.662	10.49858
19.70416	220.746	10.49847
19.7125	220.8329	10.49835
19.72083	220.9123	10.49826
19.72916	220.9962	10.49816
19.7375	221.0791	10.49806
19.74583	221.1658	10.49799
19.75417	221.2493	10.4979
19.7625	221.3317	10.49783
19.77084	221.4159	10.49775
19.77917	221.5031	10.49763
19.7875	221.5865	10.4975
19.79584	221.6694	10.49739
19.80417	221.7555	10.49729
19.8125	221.8379	10.49719
19.82083	221.923	10.49712
19.82916	222.0092	10.49703
19.8375	222.0908	10.497
19.84583	222.1749	10.49693
19.85416	222.26	10.49685
19.8625	222.3422	10.49678
19.87083	222.4273	10.49674
19.87917	222.5129	10.49671
19.8875	222.5949	10.49664
19.89584	222.6798	10.49659
19.90417	222.7636	10.49651
19.9125	222.8487	10.49641
19.92084	222.9328	10.49628
19.92917	223.0158	10.49616
19.9375	223.0987	10.49608
19.94583	223.1824	10.49601
19.95416	223.2671	10.49593
19.9625	223.3504	10.4958
19.97083	223.4377	10.49571
19.97916	223.5197	10.49561
19.9875	223.6031	10.49552
19.99583	223.6902	10.49544
20.00417	223.772	10.49534
20.0125	223.8562	10.49525
20.02084	223.9414	10.49513
20.02917	224.028	10.49502
20.0375	224.1185	10.49493
20.04584	224.2018	10.49485
20.05417	224.288	10.49474
20.0625	224.368	10.4946
20.07083	224.4562	10.4945
20.07916	224.5387	10.49441
20.0875	224.625	10.49434
20.09583	224.7048	10.49424
20.10416	224.7915	10.49413
20.1125	224.874	10.49404
20.12083	224.9494	10.49396
20.12917	225.0328	10.49388
20.1375	225.1185	10.49381
20.14584	225.2008	10.49374
20.15417	225.285	10.49368
20.1625	225.3678	10.49358
20.17084	225.4509	10.49343
20.17917	225.5372	10.49335
20.1875	225.6228	10.49331
20.19583	225.704	10.49324
20.20416	225.7856	10.49314
20.2125	225.8725	10.49306
20.22083	225.9548	10.49298
20.22916	226.0404	10.49287
20.2375	226.1229	10.49276
20.24583	226.208	10.49266
20.25417	226.2934	10.49259
20.2625	226.3762	10.4925
20.27084	226.4624	10.4924
20.27917	226.5432	10.49231
20.2875	226.6297	10.49222
20.29584	226.7133	10.49213
20.30417	226.796	10.49204
20.3125	226.8798	10.49197
20.32083	226.9659	10.4919
20.32916	227.0479	10.49184
20.3375	227.1299	10.49176
20.34583	227.2173	10.49169
20.35416	227.3011	10.49158
20.3625	227.3824	10.49142
20.37083	227.4679	10.49131
20.37917	227.5525	10.4912
20.3875	227.6368	10.4911
20.39584	227.7198	10.49101
20.40417	227.8066	10.49091
20.4125	227.8899	10.4908
20.42084	227.9715	10.49072
20.42917	228.0538	10.4906
20.4375	228.1416	10.4905
20.44583	228.2258	10.49044
20.45416	228.3087	10.4903
20.4625	228.3926	10.4902
20.47083	228.4772	10.49008
20.47916	228.5614	10.48994
20.4875	228.6446	10.4898
20.49583	228.7269	10.48969
20.50417	228.8088	10.48957
20.5125	228.8966	10.48951
20.52084	228.9803	10.48942
20.52917	229.064	10.48936
20.5375	229.1477	10.48931
20.54584	229.2321	10.48924
20.55417	229.3158	10.48915
20.5625	229.3986	10.48907
20.57083	229.4833	10.48904
20.57916	229.5682	10.48894
20.5875	229.6514	10.48886
20.59583	229.7376	10.4887
20.60416	229.8196	10.48859
20.6125	229.9058	10.48845
20.62083	229.9894	10.48832
20.62917	230.0722	10.48818
20.6375	230.1558	10.48806
20.64584	230.241	10.48797
20.65417	230.322	10.48785
20.6625	230.405	10.48776
20.67084	230.4922	10.48769
20.67917	230.5754	10.48766
20.6875	230.659	10.48762
20.69583	230.743	10.48759
20.70416	230.825	10.48756
20.7125	230.9117	10.48751
20.72083	231.0015	10.48748
20.72916	231.0867	10.48741
20.7375	231.1703	10.48739
20.74583	231.2566	10.48731
20.75417	231.338	10.48719
20.7625	231.4222	10.48708
20.77084	231.5072	10.48696
20.77917	231.592	10.48682
20.7875	231.6742	10.4867
20.79584	231.7488	10.48656
20.80417	231.8317	10.48644
20.8125	231.917	10.48634
20.82083	232.0025	10.48616
20.82916	232.0841	10.48604
20.8375	232.168	10.48594
20.84583	232.2522	10.48583
20.85416	232.3366	10.48572
20.8625	232.4234	10.48565
20.87083	232.5042	10.48556
20.87917	232.5877	10.48548
20.8875	232.6728	10.48541
20.89584	232.7528	10.48532
20.90417	232.8384	10.48523
20.9125	232.9206	10.48515
20.92084	233.006	10.48504
20.92917	233.0884	10.48498
20.9375	233.1741	10.48494
20.94583	233.2592	10.48481
20.95416	233.3421	10.48471
20.9625	233.4262	10.48462
20.97083	233.5124	10.48449
20.97916	233.5927	10.48437
20.9875	233.6774	10.48429
20.99583	233.7597	10.48419
21.00417	233.8454	10.4841
21.0125	233.9263	10.484
21.02084	234.0137	10.4839
21.02917	234.0959	10.48385
21.0375	234.1813	10.48379
21.04584	234.269	10.4837
21.05417	234.3505	10.48361
21.0625	234.4304	10.48351
21.07083	234.5167	10.48342
21.07916	234.6027	10.48335
21.0875	234.6865	10.48328
21.09583	234.7684	10.48318
21.10416	234.8513	10.48305
21.1125	234.9367	10.48295
21.12083	235.0185	10.48287
21.12917	235.1033	10.48278
21.1375	235.186	10.48266
21.14584	235.2716	10.48252
21.15417	235.3568	10.48239
21.1625	235.4394	10.48224
21.17084	235.5335	10.48209
21.17917	235.6167	10.48197
21.1875	235.7006	10.48187
21.19583	235.7736	10.48178
21.20416	235.8582	10.48167
21.2125	235.9408	10.4816
21.22083	236.0278	10.48151
21.22916	236.1081	10.48147
21.2375	236.1934	10.48143
21.24583	236.2769	10.48137
21.25417	236.3636	10.48132
21.2625	236.4477	10.48126
21.27084	236.5298	10.48118
21.27917	236.6135	10.48108
21.2875	236.6974	10.48099
21.29584	236.7819	10.48087
21.30417	236.8646	10.48078
21.3125	236.9486	10.48068
21.32083	237.0338	10.48058
21.32916	237.1178	10.48043
21.3375	237.2002	10.48031
21.34583	237.2866	10.48024
21.35416	237.3679	10.48013
21.3625	237.4532	10.48006
21.37083	237.5367	10.47998
21.37917	237.6211	10.4799
21.3875	237.7042	10.47983
21.39584	237.7868	10.47975
21.40417	237.8715	10.47963
21.4125	237.9646	10.47956
21.42084	238.0499	10.47948
21.42917	238.134	10.47935
21.4375	238.2142	10.47923
21.44583	238.2893	10.47912
21.45416	238.3742	10.479
21.4625	238.4568	10.47891
21.47083	238.5466	10.47878
21.47916	238.6372	10.47867
21.4875	238.7199	10.47861
21.49583	238.8029	10.47855
21.50417	238.888	10.47847
21.5125	238.9724	10.47838
21.52084	239.0556	10.47832
21.52917	239.1393	10.47825
21.5375	239.2266	10.47815
21.54584	239.306	10.47798
21.55417	239.392	10.47792
21.5625	239.4739	10.47779
21.57083	239.5588	10.47764
21.57916	239.6414	10.47752
21.5875	239.7257	10.47741
21.59583	239.8106	10.47729
21.60416	239.8933	10.47712
21.6125	239.9762	10.47702
21.62083	240.0601	10.47693
21.62917	240.1453	10.47688
21.6375	240.2276	10.47672
21.64584	240.3025	10.47663
21.65417	240.386	10.47659
21.6625	240.4692	10.47652
21.67084	240.5522	10.47641
21.67917	240.6373	10.4763
21.6875	240.7194	10.47624
21.69583	240.8049	10.47612
21.70416	240.8879	10.47603
21.7125	240.9709	10.47595
21.72083	241.0554	10.47593
21.72916	241.1378	10.47584
21.7375	241.2231	10.47577
21.74583	241.3069	10.47567
21.75417	241.3898	10.47556
21.7625	241.473	10.47549
21.77084	241.5586	10.47541
21.77917	241.6411	10.4753
21.7875	241.7248	10.47521
21.79584	241.8093	10.47511
21.80417	241.8939	10.47498
21.8125	241.977	10.47489
21.82083	242.0642	10.47473
21.82916	242.1545	10.4746
21.8375	242.2402	10.47451
21.84583	242.3234	10.4744
21.85416	242.4064	10.47426
21.8625	242.4913	10.47413
21.87083	242.5758	10.47404
21.87917	242.6565	10.47395
21.8875	242.7314	10.47383
21.89584	242.8157	10.47372
21.90417	242.9002	10.47365
21.9125	242.9847	10.47357
21.92084	243.0643	10.47348
21.92917	243.1512	10.47342
21.9375	243.2367	10.47336
21.94583	243.3291	10.47328
21.95416	243.4146	10.47316
21.9625	243.4956	10.47304
21.97083	243.5817	10.47294
21.97916	243.668	10.47283
21.9875	243.7478	10.47274
21.99583	243.8338	10.47265
22.00417	243.9164	10.47256
22.0125	243.9992	10.47241
22.02084	244.0848	10.47228
22.02917	244.1652	10.47221
22.0375	244.252	10.47213
22.04584	244.3354	10.47204
22.05417	244.4096	10.47194
22.0625	244.4933	10.47189
22.07083	244.5768	10.47179
22.07916	244.6622	10.47166
22.0875	244.742	10.47154
22.09583	244.8264	10.47145
22.10416	244.9118	10.47138
22.1125	244.9969	10.47128
22.12083	245.079	10.47118
22.12917	245.1632	10.47114
22.1375	245.246	10.47102
22.14584	245.3323	10.47088
22.15417	245.417	10.47076
22.1625	245.5004	10.47067
22.17084	245.5822	10.47058
22.17917	245.6642	10.4705
22.1875	245.751	10.4704
22.19583	245.834	10.47026
22.20416	245.9186	10.47013
22.2125	246.0028	10.46997
22.22083	246.0856	10.46987
22.22916	246.1706	10.46977
22.2375	246.2564	10.46969
22.24583	246.3381	10.46958
22.25417	246.4245	10.46947
22.2625	246.5062	10.46934
22.27084	246.592	10.46922
22.27917	246.6736	10.46913
22.2875	246.7582	10.46904
22.29584	246.8419	10.46892
22.30417	246.9257	10.46884
22.3125	247.0111	10.46874
22.32083	247.0942	10.46864
22.32916	247.1762	10.46854
22.3375	247.2598	10.46845
22.34583	247.3425	10.46834
22.35416	247.4291	10.4682
22.3625	247.5135	10.4681
22.37083	247.5954	10.46796
22.37917	247.6815	10.46782
22.3875	247.7644	10.46769
22.39584	247.8476	10.46753
22.40417	247.9311	10.46737
22.4125	248.0153	10.46722
22.42084	248.0986	10.46712
22.42917	248.1819	10.46701
22.4375	248.267	10.46696
22.44583	248.3524	10.46686
22.45416	248.4344	10.46682
22.4625	248.5204	10.46678
22.47083	248.6055	10.46671
22.47916	248.6898	10.46666
22.4875	248.782	10.46661
22.49583	248.8668	10.46656
22.50417	248.949	10.46649
22.5125	249.0344	10.46639
22.52084	249.1167	10.46629
22.52917	249.2002	10.46616
22.5375	249.2851	10.46603
22.54584	249.3694	10.46594
22.55417	249.4513	10.4658
22.5625	249.5376	10.4657
22.57083	249.6144	10.46562
22.57916	249.6934	10.46553
22.5875	249.7812	10.46542
22.59583	249.8619	10.46533
22.60416	249.9475	10.46525
22.6125	250.0318	10.46519
22.62083	250.116	10.46511
22.62917	250.1983	10.46496
22.6375	250.2828	10.4649
22.64584	250.3642	10.46481
22.65417	250.4503	10.46469
22.6625	250.5331	10.4646
22.67084	250.6181	10.46447
22.67917	250.704	10.46437
22.6875	250.788	10.46424
22.69583	250.8692	10.46411
22.70416	250.9548	10.46403
22.7125	251.0386	10.46391
22.72083	251.1192	10.4638
22.72916	251.206	10.46368
22.7375	251.2896	10.46357
22.74583	251.3756	10.46346
22.75417	251.4597	10.46334
22.7625	251.5425	10.46326
22.77084	251.6251	10.46314
22.77917	251.7092	10.46304
22.7875	251.7944	10.46288
22.79584	251.8765	10.46277
22.80417	251.9604	10.46268
22.8125	252.0442	10.46256
22.82083	252.1306	10.46242
22.82916	252.2131	10.4623
22.8375	252.3027	10.46221
22.84583	252.3817	10.46207
22.85416	252.465	10.46196
22.8625	252.5488	10.46186
22.87083	252.6316	10.46178
22.87917	252.7172	10.46167
22.8875	252.7996	10.46154
22.89584	252.883	10.46142
22.90417	252.9653	10.46134
22.9125	253.0488	10.46122
22.92084	253.1341	10.46108
22.92917	253.2209	10.46097
22.9375	253.3018	10.46086
22.94583	253.3856	10.46076
22.95416	253.4697	10.46064
22.9625	253.5529	10.46056
22.97083	253.6372	10.46045
22.97916	253.7214	10.46034
22.9875	253.8039	10.46023
22.99583	253.8922	10.46013
23.00417	253.9735	10.46004
23.0125	254.0599	10.45994
23.02084	254.1422	10.45984
23.02917	254.2272	10.45973
23.0375	254.31	10.45958
23.04584	254.3952	10.45946
23.05417	254.48	10.4594
23.0625	254.5616	10.45934
23.07083	254.6451	10.45918
23.07916	254.7292	10.45903
23.0875	254.8145	10.45891
23.09583	254.8982	10.45878
23.10416	254.9784	10.45867
23.1125	255.0648	10.45855
23.12083	255.1549	10.45843
23.12917	255.234	10.45829
23.1375	255.3161	10.45814
23.14584	255.4016	10.45798
23.15417	255.4862	10.45789
23.1625	255.568	10.45782
23.17084	255.6527	10.45777
23.17917	255.7367	10.45774
23.1875	255.8206	10.45761
23.19583	255.9053	10.45752
23.20416	255.989	10.45748
23.2125	256.0725	10.4574
23.22083	256.1546	10.4573
23.22916	256.241	10.4572
23.2375	256.3253	10.45711
23.24583	256.4092	10.45699
23.25417	256.4929	10.45684
23.2625	256.5744	10.45662
23.27084	256.6602	10.45652
23.27917	256.7445	10.45638
23.2875	256.8296	10.45622
23.29584	256.9095	10.45608
23.30417	256.9964	10.45597
23.3125	257.0798	10.45584
23.32083	257.1646	10.45576
23.32916	257.2478	10.45566
23.3375	257.3302	10.45556
23.34583	257.4138	10.45549
23.35416	257.4995	10.45538
23.3625	257.5842	10.45528
23.37083	257.6667	10.4552
23.37917	257.7521	10.4551
23.3875	257.8334	10.455
23.39584	257.9211	10.45493
23.40417	258.0025	10.4548
23.4125	258.0871	10.45467
23.42084	258.1712	10.45457
23.42917	258.2544	10.45446
23.4375	258.3361	10.45432
23.44583	258.4222	10.45426
23.45416	258.507	10.45414
23.4625	258.5884	10.45401
23.47083	258.6735	10.45388
23.47916	258.755	10.45374
23.4875	258.8412	10.45363
23.49583	258.9258	10.45346
23.50417	259.0086	10.45332
23.5125	259.094	10.45318
23.52084	259.1754	10.45306
23.52917	259.2592	10.45284
23.5375	259.3432	10.45271
23.54584	259.4286	10.45256
23.55417	259.5135	10.45244
23.5625	259.5937	10.45231
23.57083	259.681	10.45219
23.57916	259.7627	10.45212
23.5875	259.8462	10.45203
23.59583	259.9306	10.45193
23.60416	260.0135	10.45184
23.6125	260.1006	10.45181
23.62083	260.1819	10.45173
23.62917	260.2641	10.45166
23.6375	260.3512	10.45155
23.64584	260.4358	10.45144
23.65417	260.5178	10.45132
23.6625	260.6032	10.45117
23.67084	260.6944	10.45096
23.67917	260.773	10.45084
23.6875	260.854	10.45072
23.69583	260.9363	10.45055
23.70416	261.0212	10.4504
23.7125	261.1018	10.45027
23.72083	261.188	10.45015
23.72916	261.274	10.45002
23.7375	261.3538	10.44993
23.74583	261.438	10.44987
23.75417	261.5256	10.44987
23.7625	261.6066	10.44977
23.77084	261.687	10.44967
23.77917	261.774	10.44956
23.7875	261.8564	10.44946
23.79584	261.9394	10.44936
23.80417	262.0257	10.44925
23.8125	262.1088	10.44915
23.82083	262.1918	10.44898
23.82916	262.2763	10.44883
23.8375	262.3594	10.4487
23.84583	262.4439	10.44859
23.85416	262.5294	10.44846
23.8625	262.6135	10.44837
23.87083	262.696	10.44827
23.87917	262.778	10.44816
23.8875	262.8623	10.44804
23.89584	262.9466	10.44792
23.90417	263.0322	10.44782
23.9125	263.115	10.44772
23.92084	263.1982	10.44755
23.92917	263.2824	10.44742
23.9375	263.3666	10.4473
23.94583	263.4494	10.44719
23.95416	263.5349	10.44706
23.9625	263.6174	10.44694
23.97083	263.7006	10.44682
23.97916	263.7848	10.44671
23.9875	263.868	10.44661
23.99583	263.9516	10.4465
24.00417	264.0367	10.4464
24.0125	264.1224	10.44624
24.02084	264.205	10.44612
24.02917	264.2891	10.44599
24.0375	264.3702	10.44588
24.04584	264.454	10.44574
24.05417	264.5372	10.44562
24.0625	264.6206	10.44551
24.07083	264.7048	10.4454
24.07916	264.7896	10.44527
24.0875	264.8711	10.44516
24.09583	264.954	10.44511
24.10416	265.0395	10.44499
24.1125	265.123	10.44486
24.12083	265.2091	10.44475
24.12917	265.2897	10.44467
24.1375	265.3738	10.44457
24.14584	265.458	10.44447
24.15417	265.543	10.44436
24.1625	265.6278	10.44426
24.17084	265.7084	10.44417
24.17917	265.7955	10.44405
24.1875	265.8798	10.44396
24.19583	265.9612	10.44384
24.20416	266.0449	10.4437
24.2125	266.1296	10.44356
24.22083	266.2105	10.4434
24.22916	266.2924	10.44329
24.2375	266.3777	10.44315
24.24583	266.4618	10.44299
24.25417	266.5462	10.44283
24.2625	266.6301	10.4427
24.27084	266.7139	10.44257
24.27917	266.7988	10.44243
24.2875	266.8797	10.44224
24.29584	266.9638	10.4421
24.30417	267.0486	10.44195
24.3125	267.1334	10.44176
24.32083	267.216	10.44158
24.32916	267.2974	10.44142
24.3375	267.3857	10.44125
24.34583	267.4684	10.44109
24.35416	267.5621	10.44092
24.3625	267.6454	10.44082
24.37083	267.7303	10.44076
24.37917	267.814	10.44064
24.3875	267.8982	10.44055
24.39584	267.969	10.44044
24.40417	268.0556	10.44029
24.4125	268.1394	10.44017
24.42084	268.2216	10.44008
24.42917	268.304	10.43997
24.4375	268.389	10.43989
24.44583	268.4736	10.43977
24.45416	268.5582	10.43967
24.4625	268.6408	10.43957
24.47083	268.7254	10.43945
24.47916	268.807	10.43934
24.4875	268.892	10.43929
24.49583	268.9786	10.43922
24.50417	269.0628	10.43913
24.5125	269.1444	10.43906
24.52084	269.2272	10.43893
24.52917	269.3122	10.43878
24.5375	269.3952	10.43864
24.54584	269.4781	10.43849
24.55417	269.5633	10.43835
24.5625	269.6471	10.43822
24.57083	269.7306	10.43808
24.57916	269.8128	10.43796
24.5875	269.8974	10.43783
24.59583	269.9814	10.43762
24.60416	270.0672	10.4374
24.6125	270.1506	10.43724
24.62083	270.2326	10.43708
24.62917	270.3166	10.43693
24.6375	270.4013	10.4368
24.64584	270.4862	10.43664
24.65417	270.5681	10.4365
24.6625	270.6513	10.43635
24.67084	270.738	10.43618
24.67917	270.8195	10.4361
24.6875	270.9065	10.43607
24.69583	270.9886	10.43601
24.70416	271.0716	10.43589
24.7125	271.1558	10.43572
24.72083	271.237	10.43558
24.72916	271.3235	10.43546
24.7375	271.4065	10.4353
24.74583	271.491	10.43514
24.75417	271.572	10.43498
24.7625	271.6578	10.43482
24.77084	271.7405	10.43466
24.77917	271.8246	10.43448
24.7875	271.9083	10.43436
24.79584	271.9917	10.43434
24.80417	272.0766	10.43423
24.8125	272.1606	10.43414
24.82083	272.2438	10.43406
24.82916	272.326	10.43399
24.8375	272.4119	10.43391
24.84583	272.4967	10.43382
24.85416	272.5782	10.43371
24.8625	272.6622	10.43361
24.87083	272.7437	10.4335
24.87917	272.8304	10.43332
24.8875	272.9088	10.43319
24.89584	272.9985	10.43305
24.90417	273.0818	10.43295
24.9125	273.1638	10.43281
24.92084	273.2456	10.43269
24.92917	273.3289	10.43255
24.9375	273.4144	10.43242
24.94583	273.5	10.43226
24.95416	273.5818	10.43209
24.9625	273.6666	10.43191
24.97083	273.7492	10.43177
24.97916	273.8336	10.43165
24.9875	273.9165	10.4315
24.99583	274.0014	10.43137
25.00417	274.0879	10.43121
25.0125	274.1707	10.43107
25.02084	274.2512	10.43095
25.02917	274.336	10.43084
25.0375	274.428	10.43073
25.04584	274.5152	10.43066
25.05417	274.599	10.43053
25.0625	274.6802	10.4304
25.07083	274.7647	10.43027
25.07916	274.8492	10.43013
25.0875	274.9323	10.43
25.09583	275.016	10.42986
25.10416	275.0996	10.42975
25.1125	275.1841	10.42962
25.12083	275.2675	10.42946
25.12917	275.3507	10.42934
25.1375	275.4354	10.42922
25.14584	275.5197	10.42905
25.15417	275.6015	10.4289
25.1625	275.6849	10.42877
25.17084	275.7713	10.42864
25.17917	275.8509	10.4285
25.1875	275.9362	10.42832
25.19583	276.0205	10.4282
25.20416	276.1023	10.42809
25.2125	276.1892	10.42797
25.22083	276.2696	10.42784
25.22916	276.3522	10.42773
25.2375	276.4368	10.42761
25.24583	276.5236	10.42748
25.25417	276.6038	10.42732
25.2625	276.6892	10.4271
25.27084	276.771	10.42697
25.27917	276.855	10.42683
25.2875	276.9394	10.42664
25.29584	277.0206	10.42644
25.30417	277.1064	10.42624
25.3125	277.1892	10.42607
25.32083	277.272	10.42591
25.32916	277.3556	10.42577
25.3375	277.4405	10.42562
25.34583	277.521	10.42553
25.35416	277.5946	10.4254
25.3625	277.682	10.42522
25.37083	277.7672	10.42509
25.37917	277.8465	10.42498
25.3875	277.9338	10.42489
25.39584	278.0155	10.42476
25.40417	278.1015	10.4246
25.4125	278.1832	10.42446
25.42084	278.2649	10.42436
25.42917	278.3498	10.42425
25.4375	278.4352	10.42407
25.44583	278.5185	10.42392
25.45416	278.6004	10.42379
25.4625	278.687	10.42363
25.47083	278.7682	10.42347
25.47916	278.8515	10.42332
25.4875	278.9357	10.42319
25.49583	279.0199	10.42304
25.50417	279.1037	10.42284
25.5125	279.1875	10.42262
25.52084	279.2688	10.42249
25.52917	279.3546	10.42235
25.5375	279.4406	10.42214
25.54584	279.5237	10.42198
25.55417	279.6058	10.42178
25.5625	279.6888	10.42159
25.57083	279.7717	10.42144
25.57916	279.8562	10.42126
25.5875	279.9426	10.42106
25.59583	280.025	10.42095
25.60416	280.1073	10.42079
25.6125	280.1922	10.42065
25.62083	280.2748	10.42052
25.62917	280.3666	10.42036
25.6375	280.4448	10.42023
25.64584	280.5275	10.42015
25.65417	280.6102	10.41998
25.6625	280.6946	10.41984
25.67084	280.78	10.41974
25.67916	280.8632	10.41958
25.6875	280.9454	10.41941
25.69584	281.0287	10.41921
25.70416	281.1148	10.41911
25.7125	281.198	10.41892
25.72083	281.2813	10.41874
25.72916	281.363	10.41851
25.7375	281.448	10.41839
25.74583	281.5327	10.41824
25.75417	281.6171	10.41814
25.7625	281.7005	10.41801
25.77084	281.7834	10.4179
25.77917	281.8701	10.41777
25.7875	281.9523	10.41761
25.79584	282.0339	10.41753
25.80416	282.1205	10.41743
25.8125	282.2009	10.41733
25.82084	282.293	10.41715
25.82916	282.3802	10.41705
25.8375	282.4616	10.41687
25.84583	282.5504	10.4167
25.85416	282.6314	10.41657
25.8625	282.7137	10.41647
25.87083	282.7965	10.41632
25.87917	282.8828	10.41617
25.8875	282.9678	10.41602
25.89584	283.0495	10.41586
25.90417	283.1338	10.41571
25.9125	283.2163	10.41552
25.92084	283.3	10.41537
25.92916	283.385	10.41522
25.9375	283.467	10.41504
25.94584	283.5525	10.41482
25.95416	283.6342	10.41466
25.9625	283.7186	10.41445
25.97083	283.8021	10.41424
25.97916	283.8847	10.41404
25.9875	283.9691	10.41385
25.99583	284.0505	10.41362
26.00417	284.1336	10.4134
26.0125	284.2111	10.41322
26.02084	284.2941	10.41307
26.02917	284.3758	10.4129
26.0375	284.4606	10.41276
26.04584	284.5434	10.41266
26.05416	284.6276	10.41252
26.0625	284.7148	10.41239
26.07084	284.797	10.41221
26.07916	284.8792	10.4121
26.0875	284.9625	10.41197
26.09583	285.0479	10.41179
26.10416	285.1298	10.4116
26.1125	285.2156	10.41141
26.12083	285.2986	10.41122
26.12917	285.3811	10.41103
26.1375	285.467	10.41086
26.14584	285.5508	10.41068
26.15417	285.6328	10.41048
26.1625	285.714	10.41032
26.17084	285.7995	10.41017
26.17916	285.8864	10.41
26.1875	285.9669	10.40981
26.19584	286.0528	10.40964
26.20416	286.1351	10.40945
26.2125	286.2192	10.40925
26.22083	286.3038	10.40908
26.22916	286.3852	10.40887
26.2375	286.4692	10.40881
26.24583	286.5539	10.40864
26.25417	286.636	10.40849
26.2625	286.7227	10.40833
26.27084	286.803	10.40818
26.27917	286.8874	10.40801
26.2875	286.9722	10.40783
26.29584	287.0582	10.40766
26.30416	287.1418	10.40751
26.3125	287.2254	10.40741
26.32084	287.3088	10.40717
26.32916	287.3907	10.40698
26.3375	287.4732	10.40679
26.34583	287.5691	10.40664
26.35416	287.6505	10.40647
26.3625	287.7374	10.4063
26.37083	287.8216	10.40614
26.37917	287.9055	10.40597
26.3875	287.9882	10.40578
26.39584	288.074	10.40561
26.40417	288.1564	10.40538
26.4125	288.2361	10.40521
26.42084	288.3209	10.40502
26.42916	288.4058	10.40481
26.4375	288.4896	10.40461
26.44584	288.5732	10.40444
26.45416	288.656	10.40426
26.4625	288.7314	10.40409
26.47083	288.8125	10.40389
26.47916	288.8987	10.4037
26.4875	288.9819	10.40355
26.49583	289.0674	10.40333
26.50417	289.149	10.40314
26.5125	289.2344	10.40297
26.52084	289.318	10.40281
26.52917	289.4008	10.40261
26.5375	289.4838	10.40237
26.54584	289.5686	10.40218
26.55416	289.6534	10.40198
26.5625	289.734	10.40176
26.57084	289.8195	10.40154
26.57916	289.9036	10.40138
26.5875	289.987	10.40119
26.59583	290.0687	10.40101
26.60416	290.1553	10.40083
26.6125	290.2365	10.40068
26.62083	290.3202	10.4005
26.62917	290.406	10.40031
26.6375	290.4911	10.40013
26.64584	290.5734	10.39996
26.65417	290.657	10.39984
26.6625	290.7417	10.39965
26.67084	290.8226	10.39939
26.67916	290.908	10.39921
26.6875	290.9926	10.39899
26.69584	291.0756	10.39874
26.70416	291.1582	10.39851
26.7125	291.2414	10.39827
26.72083	291.3244	10.39807
26.72916	291.4104	10.39785
26.7375	291.4931	10.39758
26.74583	291.5765	10.39739
26.75417	291.6602	10.39724
26.7625	291.7438	10.39702
26.77084	291.8295	10.39683
26.77917	291.913	10.39665
26.7875	291.9974	10.39652
26.79584	292.0804	10.39637
26.80416	292.166	10.39617
26.8125	292.2473	10.39602
26.82084	292.331	10.39585
26.82916	292.416	10.39567
26.8375	292.4996	10.39548
26.84583	292.5801	10.3953
26.85416	292.6644	10.39513
26.8625	292.749	10.39494
26.87083	292.8326	10.39472
26.87917	292.9168	10.39454
26.8875	292.9974	10.39435
26.89584	293.0804	10.39413
26.90417	293.1648	10.39392
26.9125	293.248	10.39369
26.92084	293.3325	10.39352
26.92916	293.4172	10.39332
26.9375	293.4978	10.39312
26.94584	293.5854	10.39292
26.95416	293.6682	10.39271
26.9625	293.7512	10.39251
26.97083	293.8346	10.39228
26.97916	293.9209	10.39207
26.9875	294.0042	10.39189
26.99583	294.0872	10.39172
27.00417	294.17	10.3915
27.0125	294.2542	10.39127
27.02084	294.3376	10.39106
27.02917	294.4228	10.39084
27.0375	294.5055	10.39061
27.04584	294.5898	10.39037
27.05416	294.6746	10.39014
27.0625	294.7567	10.38991
27.07084	294.838	10.38966
27.07916	294.9229	10.38939
27.0875	295.0067	10.38912
27.09583	295.0902	10.38884
27.10416	295.1743	10.38857
27.1125	295.262	10.38829
27.12083	295.3525	10.388
27.12917	295.434	10.38778
27.1375	295.5186	10.3876
27.14584	295.6022	10.38742
27.15417	295.6782	10.38725
27.1625	295.76	10.38708
27.17084	295.841	10.38689
27.17916	295.9268	10.38673
27.1875	296.012	10.38656
27.19584	296.0928	10.38638
27.20416	296.1784	10.38623
27.2125	296.2598	10.38605
27.22083	296.3444	10.3858
27.22916	296.4275	10.38555
27.2375	296.5126	10.38528
27.24583	296.598	10.38502
27.25417	296.6804	10.38478
27.2625	296.7662	10.38454
27.27084	296.8484	10.38427
27.27917	296.9299	10.38402
27.2875	297.0166	10.38379
27.29584	297.0999	10.3835
27.30416	297.1836	10.38322
27.3125	297.2676	10.38296
27.32084	297.3508	10.38269
27.32916	297.442	10.38248
27.3375	297.5264	10.38222
27.34583	297.611	10.38196
27.35416	297.6939	10.38172
27.3625	297.7776	10.38148
27.37083	297.86	10.38131
27.37917	297.9461	10.38109
27.3875	298.0293	10.38088
27.39584	298.11	10.38067
27.40417	298.1969	10.38049
27.4125	298.2825	10.38024
27.42084	298.3604	10.38002
27.42916	298.4465	10.37979
27.4375	298.5296	10.37961
27.44584	298.6146	10.37938
27.45416	298.6894	10.37906
27.4625	298.772	10.37883
27.47083	298.857	10.37861
27.47916	298.9394	10.37843
27.4875	299.0224	10.37814
27.49583	299.1141	10.37789
27.50417	299.1884	10.37765
27.5125	299.273	10.37741
27.52084	299.3586	10.37713
27.52917	299.4392	10.37686
27.5375	299.525	10.37662
27.54584	299.6086	10.37636
27.55416	299.6912	10.37607
27.5625	299.7752	10.37577
27.57084	299.8592	10.37553
27.57916	299.9442	10.37527
27.5875	300.0256	10.37499
27.59583	300.1111	10.37473
27.60416	300.195	10.37446
27.6125	300.2758	10.37418
27.62083	300.3597	10.37391
27.62917	300.453	10.37365
27.6375	300.54	10.3734
27.64584	300.6212	10.37319
27.65417	300.7029	10.3729
27.6625	300.7905	10.37264
27.67084	300.8694	10.37241
27.67916	300.9476	10.37214
27.6875	301.029	10.37188
27.69584	301.1136	10.37163
27.70416	301.1977	10.37138
27.7125	301.2822	10.37112
27.72083	301.366	10.37085
27.72916	301.4482	10.37051
27.7375	301.5316	10.37026
27.74583	301.6185	10.37
27.75417	301.6972	10.36972
27.7625	301.7844	10.36941
27.77084	301.8659	10.36911
27.77917	301.9488	10.36883
27.7875	302.0332	10.36854
27.79584	302.1191	10.36827
27.80416	302.2041	10.36799
27.8125	302.2841	10.36772
27.82084	302.368	10.36745
27.82916	302.4513	10.36713
27.8375	302.536	10.36685
27.84583	302.6218	10.3666
27.85416	302.6996	10.36634
27.8625	302.7863	10.36605
27.87083	302.8685	10.36576
27.87917	302.9564	10.36546
27.8875	303.0384	10.36518
27.89584	303.1307	10.36488
27.90417	303.2142	10.36457
27.9125	303.2989	10.36428
27.92084	303.383	10.36395
27.92916	303.4673	10.36361
27.9375	303.5499	10.3633
27.94584	303.6339	10.363
27.95416	303.7168	10.3627
27.9625	303.8018	10.3624
27.97083	303.882	10.36209
27.97916	303.9656	10.3618
27.9875	304.0528	10.36152
27.99583	304.1346	10.36122
28.00417	304.2203	10.36096
28.0125	304.3009	10.36069
28.02084	304.3854	10.3604
28.02917	304.4695	10.36012
28.0375	304.5525	10.35984
28.04584	304.6344	10.35955
28.05416	304.7175	10.35925
28.0625	304.8006	10.35896
28.07084	304.8783	10.35864
28.07916	304.9598	10.35834
28.0875	305.0436	10.35803
28.09583	305.1249	10.35773
28.10416	305.21	10.35742
28.1125	305.2936	10.3571
28.12083	305.3748	10.35679
28.12917	305.4575	10.35648
28.1375	305.5432	10.35617
28.14584	305.6266	10.35588
28.15417	305.7119	10.35558
28.1625	305.7952	10.3553
28.17084	305.8778	10.35499
28.17916	305.9611	10.35467
28.1875	306.045	10.3544
28.19584	306.126	10.35412
28.20416	306.2117	10.35382
28.2125	306.2956	10.35351
28.22083	306.3782	10.35316
28.22916	306.4619	10.35281
28.2375	306.5484	10.35249
28.24583	306.6308	10.35212
28.25417	306.7155	10.35177
28.2625	306.7972	10.35141
28.27084	306.882	10.35102
28.27917	306.9642	10.35063
28.2875	307.0512	10.35023
28.29584	307.1316	10.34986
28.30416	307.2156	10.34952
28.3125	307.2998	10.34919
28.32084	307.3844	10.34886
28.32916	307.4678	10.34858
28.3375	307.5516	10.34828
28.34583	307.635	10.34796
28.35416	307.7181	10.34765
28.3625	307.8015	10.34732
28.37083	307.8854	10.34704
28.37917	307.9686	10.34669
28.3875	308.0538	10.34634
28.39584	308.1357	10.34598
28.40417	308.2178	10.34561
28.4125	308.303	10.34521
28.42084	308.3872	10.34486
28.42916	308.4706	10.34451
28.4375	308.5541	10.34413
28.44584	308.6377	10.34376
28.45416	308.7188	10.34339
28.4625	308.8041	10.34308
28.47083	308.8895	10.34274
28.47916	308.9726	10.34241
28.4875	309.0565	10.34205
28.49583	309.1378	10.3417
28.50417	309.225	10.34132
28.5125	309.3053	10.34092
28.52084	309.3892	10.34056
28.52917	309.4744	10.34019
28.5375	309.5569	10.3398
28.54584	309.6406	10.33942
28.55416	309.7265	10.33906
28.5625	309.8103	10.33866
28.57084	309.8948	10.33827
28.57916	309.9768	10.33789
28.5875	310.059	10.3375
28.59583	310.1429	10.33717
28.60416	310.2268	10.3368
28.6125	310.3124	10.33645
28.62083	310.393	10.33607
28.62917	310.48	10.33573
28.6375	310.5628	10.33533
28.64584	310.6429	10.33495
28.65417	310.7291	10.33459
28.6625	310.8132	10.3342
28.67084	310.8965	10.33378
28.67916	310.9804	10.3334
28.6875	311.0649	10.333
28.69584	311.1448	10.33256
28.70416	311.2312	10.33215
28.7125	311.3164	10.33168
28.72083	311.3984	10.33131
28.72916	311.483	10.33094
28.7375	311.5669	10.33054
28.74583	311.649	10.33014
28.75417	311.7352	10.32979
28.7625	311.815	10.32937
28.77084	311.899	10.32898
28.77917	311.9826	10.32863
28.7875	312.068	10.32825
28.79584	312.1501	10.32787
28.80416	312.2344	10.32746
28.8125	312.321	10.32705
28.82084	312.4022	10.32664
28.82916	312.4866	10.32623
28.8375	312.5712	10.32583
28.84583	312.6581	10.32544
28.85416	312.7386	10.32504
28.8625	312.8226	10.32459
28.87083	312.9028	10.3242
28.87917	312.9887	10.3238
28.8875	313.0784	10.32335
28.89584	313.1565	10.32289
28.90417	313.2382	10.32245
28.9125	313.3238	10.32203
28.92084	313.4081	10.32158
28.92916	313.4936	10.32114
28.9375	313.5752	10.32069
28.94584	313.6578	10.32028
28.95416	313.7396	10.31983
28.9625	313.826	10.31938
28.97083	313.9084	10.31897
28.97916	313.9912	10.31857
28.9875	314.0744	10.31814
28.99583	314.1587	10.31768
29.00417	314.2438	10.31723
29.0125	314.3257	10.31677
29.02084	314.4081	10.31636
29.02917	314.4949	10.31592
29.0375	314.5767	10.31547
29.04584	314.6591	10.315
29.05416	314.7445	10.31456
29.0625	314.8283	10.3141
29.07084	314.9119	10.31367
29.07916	314.997	10.31323
29.0875	315.0813	10.31279
29.09583	315.1648	10.31236
29.10416	315.2469	10.31188
29.1125	315.33	10.31139
29.12083	315.4135	10.31084
29.12917	315.4982	10.31036
29.1375	315.5811	10.30986
29.14584	315.6654	10.30942
29.15417	315.7492	10.30892
29.1625	315.8368	10.30843
29.17084	315.9263	10.30796
29.17916	316.0062	10.30749
29.1875	316.0938	10.30703
29.19584	316.1741	10.30658
29.20416	316.2562	10.3062
29.2125	316.3368	10.30573
29.22083	316.4152	10.30527
29.22916	316.501	10.30476
29.2375	316.5822	10.30429
29.24583	316.6662	10.3038
29.25417	316.7485	10.3033
29.2625	316.835	10.3028
29.27084	316.9187	10.3023
29.27917	316.9995	10.30183
29.2875	317.0824	10.30132
29.29584	317.1787	10.30083
29.30416	317.2612	10.30034
29.3125	317.3441	10.29983
29.32084	317.4317	10.29933
29.32916	317.5112	10.29883
29.3375	317.5944	10.29838
29.34583	317.6796	10.29789
29.35416	317.7622	10.29739
29.3625	317.843	10.29687
29.37083	317.9305	10.29638
29.37917	318.0125	10.29588
29.3875	318.097	10.29538
29.39584	318.1797	10.29491
29.40417	318.2644	10.29443
29.4125	318.3466	10.29391
29.42084	318.4328	10.29336
29.42916	318.515	10.29286
29.4375	318.5952	10.29233
29.44584	318.6805	10.29184
29.45416	318.7643	10.29127
29.4625	318.8442	10.29075
29.47083	318.9296	10.2902
29.47916	319.0144	10.28962
29.4875	319.0981	10.28899
29.49583	319.1815	10.28844
29.50417	319.2641	10.28788
29.5125	319.347	10.28729
29.52084	319.4326	10.28672
29.52917	319.5144	10.28612
29.5375	319.5974	10.28559
29.54584	319.6834	10.285
29.55416	319.7539	10.28443
29.5625	319.8369	10.2839
29.57084	319.9214	10.28339
29.57916	320.0051	10.28286
29.5875	320.0887	10.28233
29.59583	320.1736	10.28183
29.60416	320.2567	10.28131
29.6125	320.3389	10.2808
29.62083	320.4235	10.28025
29.62917	320.5046	10.2797
29.6375	320.591	10.27916
29.64584	320.6709	10.27857
29.65417	320.7574	10.27802
29.6625	320.8397	10.27744
29.67084	320.9241	10.27685
29.67916	321.005	10.27627
29.6875	321.0907	10.27567
29.69584	321.1723	10.27508
29.70416	321.2574	10.27452
29.7125	321.3418	10.27399
29.72083	321.4244	10.27344
29.72916	321.5059	10.2729
29.7375	321.59	10.27232
29.74583	321.6745	10.27177
29.75417	321.7568	10.27124
29.7625	321.8412	10.27067
29.77084	321.9226	10.27006
29.77917	322.0072	10.26946
29.7875	322.094	10.26886
29.79584	322.1762	10.26824
29.80416	322.2564	10.26758
29.8125	322.3418	10.26692
29.82084	322.4262	10.26627
29.82916	322.5088	10.26564
29.8375	322.5955	10.26498
29.84583	322.6758	10.26433
29.85416	322.7576	10.2637
29.8625	322.841	10.26309
29.87083	322.928	10.26249
29.87917	323.0111	10.26183
29.8875	323.094	10.26121
29.89584	323.1766	10.26061
29.90417	323.2607	10.26002
29.9125	323.3432	10.25938
29.92084	323.4274	10.25872
29.92916	323.5113	10.25812
29.9375	323.5956	10.25749
29.94584	323.6815	10.25682
29.95416	323.7628	10.25612
29.9625	323.8479	10.25551
29.97083	323.9296	10.25488
29.97916	324.0122	10.25428
29.9875	324.0962	10.25364
29.99583	324.1816	10.25301
30.00417	324.2642	10.25238
30.0125	324.3499	10.25174
30.02084	324.4329	10.25112
30.02917	324.515	10.2505
30.0375	324.5973	10.24987
30.04584	324.6817	10.24923
30.05416	324.7633	10.24857
30.0625	324.8482	10.24788
30.07084	324.9297	10.24717
30.07916	325.0172	10.24649
30.0875	325.0994	10.24582
30.09583	325.18	10.2451
30.10416	325.2659	10.24437
30.1125	325.3508	10.24367
30.12083	325.435	10.243
30.12917	325.5182	10.24233
30.1375	325.5974	10.24165
30.14584	325.6846	10.24098
30.15417	325.7665	10.24033
30.1625	325.8527	10.23966
30.17084	325.935	10.23897
30.17916	326.0171	10.23832
30.1875	326.0985	10.23765
30.19584	326.1844	10.23697
30.20416	326.2699	10.23626
30.2125	326.3533	10.23556
30.22083	326.4364	10.23487
30.22916	326.52	10.23417
30.2375	326.6034	10.23348
30.24583	326.6856	10.23279
30.25417	326.7704	10.2321
30.2625	326.8519	10.23139
30.27084	326.9346	10.23069
30.27917	327.0184	10.22999
30.2875	327.1017	10.2293
30.29584	327.1891	10.22856
30.30416	327.27	10.22783
30.3125	327.3534	10.22713
30.32084	327.4385	10.2264
30.32916	327.5211	10.22565
30.3375	327.6054	10.22491
30.34583	327.6867	10.22419
30.35416	327.7704	10.22349
30.3625	327.8565	10.22276
30.37083	327.9377	10.22199
30.37917	328.0219	10.22126
30.3875	328.106	10.22051
30.39584	328.1883	10.21973
30.40417	328.2704	10.21896
30.4125	328.3542	10.2182
30.42084	328.4386	10.21739
30.42916	328.5226	10.21658
30.4375	328.6052	10.21576
30.44584	328.6893	10.21497
30.45416	328.7714	10.21424
30.4625	328.8598	10.21347
30.47083	328.9392	10.21269
30.47916	329.0232	10.21194
30.4875	329.1081	10.21119
30.49583	329.1896	10.21043
30.50417	329.2744	10.2097
30.5125	329.3589	10.20896
30.52084	329.4422	10.20821
30.52917	329.525	10.20744
30.5375	329.609	10.20665
30.54584	329.6889	10.2059
30.55416	329.7742	10.20513
30.5625	329.8577	10.20433
30.57084	329.9437	10.20353
30.57916	330.026	10.2028
30.5875	330.11	10.20201
30.59583	330.1914	10.20122
30.60416	330.2766	10.20042
30.6125	330.359	10.19958
30.62083	330.4424	10.19874
30.62917	330.5249	10.19793
30.6375	330.6092	10.19714
30.64584	330.6939	10.19635
30.65417	330.7754	10.19551
30.6625	330.8617	10.19464
30.67084	330.9519	10.19382
30.67916	331.0355	10.19301
30.6875	331.1088	10.19221
30.69584	331.1937	10.19143
30.70416	331.2756	10.1906
30.7125	331.3594	10.18977
30.72083	331.4428	10.1889
30.72916	331.5265	10.18804
30.7375	331.6104	10.18721
30.74583	331.6921	10.18634
30.75417	331.7774	10.18553
30.7625	331.8594	10.18469
30.77084	331.9425	10.18376
30.77917	332.0256	10.18286
30.7875	332.1105	10.18201
30.79584	332.193	10.18115
30.80416	332.2785	10.1803
30.8125	332.3613	10.17947
30.82084	332.4438	10.17861
30.82916	332.5272	10.17776
30.8375	332.6107	10.1769
30.84583	332.6942	10.17602
30.85416	332.7764	10.17522
30.8625	332.863	10.17441
30.87083	332.9452	10.17354
30.87917	333.0285	10.1727
30.8875	333.1097	10.17182
30.89584	333.195	10.17094
30.90417	333.2787	10.17009
30.9125	333.3609	10.1692
30.92084	333.4461	10.16827
30.92916	333.532	10.16737
30.9375	333.613	10.16648
30.94584	333.6966	10.16559
30.95416	333.7786	10.1647
30.9625	333.8611	10.16378
30.97083	333.9466	10.16288
30.97916	334.0268	10.16197
30.9875	334.112	10.16106
30.99583	334.195	10.16019
31.00417	334.28	10.1593
31.0125	334.361	10.15836
31.02084	334.444	10.15747
31.02917	334.5281	10.15654
31.0375	334.6125	10.15564
31.04584	334.6945	10.15476
31.05416	334.7795	10.15383
31.0625	334.863	10.15291
31.07084	334.9455	10.15199
31.07916	335.0284	10.15104
31.0875	335.1113	10.15013
31.09583	335.1953	10.14925
31.10416	335.2769	10.14831
31.1125	335.3602	10.14737
31.12083	335.4433	10.1464
31.12917	335.5308	10.14541
31.1375	335.6101	10.14446
31.14584	335.6962	10.14356
31.15417	335.78	10.14262
31.1625	335.8721	10.14167
31.17084	335.9566	10.14071
31.17916	336.0308	10.13975
31.1875	336.1139	10.13878
31.19584	336.1955	10.13784
31.20416	336.2783	10.13689
31.2125	336.3616	10.13597
31.22083	336.4466	10.135
31.22916	336.5305	10.13398
31.2375	336.6146	10.13303
31.24583	336.6969	10.13205
31.25417	336.7774	10.13105
31.2625	336.8612	10.13006
31.27084	336.9469	10.12909
31.27917	337.0303	10.12811
31.2875	337.112	10.12714
31.29584	337.1965	10.12617
31.30416	337.2801	10.12521
31.3125	337.3637	10.12425
31.32084	337.4473	10.12325
31.32916	337.53	10.12226
31.3375	337.6148	10.12128
31.34583	337.695	10.12028
31.35416	337.7805	10.11927
31.3625	337.8675	10.11826
31.37083	337.9491	10.11727
31.37917	338.0322	10.11622
31.3875	338.114	10.11522
31.39584	338.1978	10.11419
31.40417	338.2826	10.11318
31.4125	338.3656	10.11218
31.42084	338.4463	10.11117
31.42916	338.5316	10.11019
31.4375	338.6161	10.1092
31.44584	338.6987	10.10818
31.45416	338.7812	10.10717
31.4625	338.865	10.10618
31.47083	338.9472	10.10515
31.47916	339.0322	10.10417
31.4875	339.1139	10.10307
31.49583	339.1979	10.10203
31.50417	339.2818	10.101
31.5125	339.3653	10.09995
31.52084	339.4482	10.09891
31.52917	339.5332	10.09788
31.5375	339.6152	10.09684
31.54584	339.6967	10.0958
31.55416	339.7802	10.09476
31.5625	339.8656	10.09365
31.57084	339.9533	10.09269
31.57916	340.0321	10.09163
31.5875	340.1174	10.09055
31.59583	340.1992	10.08947
31.60416	340.2821	10.0884
31.6125	340.3653	10.08729
31.62083	340.4508	10.08616
31.62917	340.533	10.08503
31.6375	340.6146	10.08391
31.64584	340.7004	10.08281
31.65417	340.7839	10.08172
31.6625	340.8674	10.08063
31.67084	340.9486	10.07959
31.67916	341.0324	10.07852
31.6875	341.1167	10.07745
31.69584	341.2	10.07641
31.70416	341.2791	10.07536
31.7125	341.3642	10.07432
31.72083	341.4563	10.07327
31.72916	341.5382	10.07222
31.7375	341.6164	10.0712
31.74583	341.6998	10.0702
31.75417	341.7834	10.06911
31.7625	341.8683	10.06802
31.77084	341.9528	10.06695
31.77917	342.0344	10.06588
31.7875	342.1168	10.06477
31.79584	342.2012	10.06366
31.80416	342.2846	10.06257
31.8125	342.3688	10.06145
31.82084	342.45	10.0603
31.82916	342.534	10.0591
31.8375	342.6188	10.05796
31.84583	342.7037	10.05684
31.85416	342.7877	10.05569
31.8625	342.8677	10.05453
31.87083	342.9538	10.05345
31.87917	343.035	10.05234
31.8875	343.1163	10.0512
31.89584	343.2022	10.05008
31.90417	343.2926	10.04897
31.9125	343.3681	10.04784
31.92084	343.4519	10.04673
31.92916	343.5353	10.04558
31.9375	343.6202	10.04449
31.94584	343.6987	10.04337
31.95416	343.7818	10.04222
31.9625	343.8675	10.04107
31.97083	343.9494	10.03994
31.97916	344.0342	10.0388
31.9875	344.1167	10.03763
31.99583	344.2007	10.03648
32.00416	344.2831	10.03533
32.0125	344.3695	10.03421
32.02083	344.4508	10.03304
32.02917	344.5334	10.03187
32.0375	344.6172	10.03068
32.04584	344.7035	10.02951
32.05416	344.7855	10.02833
32.0625	344.8686	10.02715
32.07084	344.9539	10.02598
32.07916	345.0354	10.02481
32.0875	345.1182	10.02359
32.09583	345.2002	10.02241
32.10417	345.2848	10.02123
32.1125	345.3672	10.02003
32.12084	345.4506	10.01885
32.12916	345.5347	10.01767
32.1375	345.6164	10.01648
32.14583	345.7018	10.0153
32.15417	345.786	10.01413
32.1625	345.8656	10.01292
32.17084	345.9525	10.01168
32.17916	346.0358	10.01047
32.1875	346.1178	10.00925
32.19584	346.202	10.00803
32.20416	346.2844	10.00683
32.2125	346.369	10.00564
32.22083	346.4528	10.00441
32.22917	346.5368	10.00315
32.2375	346.6172	10.00187
32.24584	346.7017	10.00064
32.25416	346.7841	9.999432
32.2625	346.8663	9.998153
32.27083	346.9605	9.996937
32.27917	347.0426	9.99572
32.2875	347.118	9.994484
32.29584	347.2033	9.993249
32.30416	347.2865	9.992014
32.3125	347.3754	9.990841
32.32084	347.4561	9.98965
32.32916	347.5352	9.988447
32.3375	347.619	9.987244
32.34583	347.7045	9.986034
32.35417	347.7845	9.984789
32.3625	347.8688	9.983535
32.37084	347.9512	9.982258
32.37916	348.038	9.980984
32.3875	348.1186	9.979754
32.39583	348.2012	9.978481
32.40417	348.284	9.977203
32.4125	348.3698	9.975916
32.42084	348.4544	9.974648
32.42916	348.536	9.973384
32.4375	348.6184	9.972125
32.44584	348.7039	9.970849
32.45416	348.7856	9.969593
32.4625	348.8692	9.968303
32.47083	348.9524	9.967007
32.47917	349.0345	9.965722
32.4875	349.1196	9.964431
32.49584	349.2008	9.96315
32.50416	349.2856	9.961922
32.5125	349.3699	9.960606
32.52083	349.4525	9.959305
32.52917	349.5361	9.958024
32.5375	349.6247	9.956719
32.54584	349.713	9.955431
32.55416	349.798	9.954101
32.5625	349.8794	9.952782
32.57084	349.9622	9.951492
32.57916	350.0461	9.95018
32.5875	350.1319	9.948801
32.59583	350.2138	9.947499
32.60417	350.2926	9.946172
32.6125	350.3698	9.944821
32.62084	350.4524	9.943501
32.62916	350.5374	9.942176
32.6375	350.6221	9.940874
32.64583	350.715	9.939578
32.65417	350.7961	9.938234
32.6625	350.8794	9.936889
32.67084	350.9629	9.935541
32.67916	351.0406	9.934184
32.6875	351.118	9.932838
32.69584	351.2019	9.931501
32.70416	351.2847	9.930138
32.7125	351.3674	9.928761
32.72083	351.4535	9.927411
32.72917	351.5353	9.926047
32.7375	351.6194	9.924681
32.74584	351.7014	9.9233
32.75416	351.7864	9.921926
32.7625	351.8673	9.920538
32.77083	351.9524	9.919155
32.77917	352.0365	9.917762
32.7875	352.1192	9.916403
32.79584	352.2045	9.915008
32.80416	352.2869	9.913571
32.8125	352.3687	9.912125
32.82084	352.4522	9.910702
32.82916	352.538	9.909321
32.8375	352.6194	9.907905
32.84583	352.7021	9.906499
32.85417	352.7862	9.905097
32.8625	352.8701	9.903719
32.87084	352.9539	9.902264
32.87916	353.0371	9.90083
32.8875	353.122	9.899407
32.89583	353.204	9.897991
32.90417	353.287	9.896574
32.9125	353.3704	9.895132
32.92084	353.4524	9.893702
32.92916	353.5368	9.892278
32.9375	353.6204	9.890806
32.94584	353.7028	9.889319
32.95416	353.7852	9.887906
32.9625	353.8684	9.886509
32.97083	353.955	9.885092
32.97917	354.0391	9.883652
32.9875	354.12	9.882209
32.99584	354.203	9.880774
33.00416	354.2872	9.879305
33.0125	354.3696	9.877845
33.02083	354.4564	9.876413
33.02917	354.5363	9.874976
33.0375	354.6192	9.873511
33.04584	354.7021	9.872031
33.05416	354.7881	9.870551
33.0625	354.8694	9.869074
33.07084	354.9526	9.867553
33.07916	355.0446	9.866082
33.0875	355.1302	9.864631
33.09583	355.2136	9.863116
33.10417	355.2968	9.861622
33.1125	355.3809	9.860151
33.12084	355.463	9.858602
33.12916	355.5486	9.857061
33.1375	355.6319	9.855551
33.14583	355.7132	9.854028
33.15417	355.7911	9.852561
33.1625	355.8718	9.850997
33.17084	355.9551	9.84946
33.17916	356.0355	9.847978
33.1875	356.1194	9.846449
33.19584	356.2031	9.844889
33.20416	356.2886	9.843436
33.2125	356.3712	9.841913
33.22083	356.453	9.840366
33.22917	356.5379	9.83883
33.2375	356.6211	9.837274
33.24584	356.7078	9.835743
33.25416	356.7963	9.834222
33.2625	356.8792	9.832674
33.27083	356.961	9.831125
33.27917	357.0454	9.829576
33.2875	357.1292	9.828036
33.29584	357.2111	9.826465
33.30416	357.2941	9.824889
33.3125	357.3731	9.823325
33.32084	357.4512	9.82175
33.32916	357.534	9.820181
33.3375	357.619	9.818585
33.34583	357.7018	9.817001
33.35417	357.7846	9.815405
33.3625	357.8668	9.813853
33.37084	357.9525	9.812204
33.37916	358.0322	9.810616
33.3875	358.1181	9.809015
33.39583	358.2011	9.807405
33.40417	358.2844	9.805788
33.4125	358.3676	9.804145
33.42084	358.4514	9.802481
33.42916	358.5344	9.800746
33.4375	358.6187	9.799097
33.44584	358.7002	9.797369
33.45416	358.7857	9.795686
33.4625	358.8685	9.794063
33.47083	358.9508	9.792422
33.47917	359.035	9.790772
33.4875	359.1168	9.789134
33.49584	359.202	9.787475
33.50416	359.287	9.785831
33.5125	359.368	9.784259
33.52083	359.4518	9.782599
33.52917	359.5347	9.780951
33.5375	359.6197	9.779303
33.54584	359.7009	9.777618
33.55416	359.7861	9.775898
33.5625	359.8684	9.774215
33.57084	359.9528	9.772501
33.57916	360.0346	9.770816
33.5875	360.1228	9.769147
33.59583	360.203	9.767461
33.60417	360.2854	9.765782
33.6125	360.3674	9.764082
33.62084	360.4524	9.762369
33.62916	360.5359	9.760672
33.6375	360.6194	9.758984
33.64583	360.7019	9.757212
33.65417	360.7843	9.755486
33.6625	360.8678	9.753772
33.67084	360.9518	9.752018
33.67916	361.036	9.750245
33.6875	361.1172	9.748462
33.69584	361.2035	9.746716
33.70416	361.287	9.744969
33.7125	361.3686	9.743216
33.72083	361.4538	9.741495
33.72917	361.5334	9.739785
33.7375	361.6176	9.738074
33.74584	361.6998	9.736332
33.75416	361.7844	9.734647
33.7625	361.8675	9.732941
33.77083	361.9519	9.731201
33.77917	362.0338	9.729454
33.7875	362.118	9.727709
33.79584	362.2028	9.725884
33.80416	362.2844	9.723999
33.8125	362.3768	9.722184
33.82084	362.4511	9.720364
33.82916	362.5345	9.718584
33.8375	362.6164	9.716712
33.84583	362.6998	9.714859
33.85417	362.7828	9.713048
33.8625	362.8648	9.711211
33.87084	362.9492	9.709374
33.87916	363.0322	9.707581
33.8875	363.115	9.705826
33.89583	363.1986	9.704019
33.90417	363.2806	9.702184
33.9125	363.3668	9.700285
33.92084	363.4484	9.698438
33.92916	363.5313	9.696588
33.9375	363.6148	9.694731
33.94584	363.697	9.692866
33.95416	363.7796	9.690996
33.9625	363.864	9.689124
33.97083	363.9464	9.687238
33.97917	364.0288	9.68532
33.9875	364.112	9.683418
33.99584	364.1968	9.681524
34.00416	364.2803	9.679603
34.0125	364.364	9.677697
34.02083	364.4456	9.675766
34.02917	364.527	9.673884
34.0375	364.6131	9.671955
34.04584	364.6933	9.670043
34.05416	364.78	9.668137
34.0625	364.8619	9.666238
34.07084	364.9431	9.664312
34.07916	365.0257	9.662426
34.0875	365.1116	9.660545
34.09583	365.1925	9.658619
34.10417	365.2772	9.656744
34.1125	365.3618	9.654816
34.12084	365.4466	9.652862
34.12916	365.5265	9.650874
34.1375	365.6085	9.648894
34.14583	365.6903	9.64692
34.15417	365.7744	9.64491
34.1625	365.8567	9.64288
34.17084	365.9408	9.640884
34.17916	366.025	9.638908
34.1875	366.1065	9.636895
34.19584	366.1906	9.63486
34.20416	366.2744	9.632875
34.2125	366.3573	9.630884
34.22083	366.4394	9.628894
34.22917	366.522	9.626897
34.2375	366.606	9.624926
34.24584	366.6907	9.622902
34.25416	366.7731	9.620851
34.2625	366.8567	9.618809
34.27083	366.9369	9.616766
34.27917	367.0225	9.614715
34.2875	367.1016	9.612652
34.29584	367.1867	9.610626
34.30416	367.2691	9.608559
34.3125	367.3545	9.606512
34.32084	367.4385	9.604416
34.32916	367.5212	9.602359
34.3375	367.6036	9.600301
34.34583	367.6877	9.598242
34.35417	367.77	9.596141
34.3625	367.8534	9.594071
34.37084	367.9336	9.592004
34.37916	368.019	9.589905
34.3875	368.1017	9.587841
34.39583	368.1841	9.585725
34.40417	368.2685	9.583672
34.4125	368.3497	9.581601
34.42084	368.4337	9.579501
34.42916	368.5175	9.577375
34.4375	368.6004	9.575278
34.44584	368.6829	9.573172
34.45416	368.7666	9.571056
34.4625	368.8504	9.568937
34.47083	368.9313	9.566766
34.47917	369.015	9.564601
34.4875	369.0969	9.562401
34.49584	369.1794	9.560225
34.50416	369.2629	9.558048
34.5125	369.3476	9.55586
34.52083	369.4304	9.553662
34.52917	369.5126	9.5514
34.5375	369.5941	9.549159
34.54584	369.6784	9.546938
34.55416	369.7629	9.544709
34.5625	369.8436	9.542484
34.57084	369.9274	9.540254
34.57916	370.0107	9.538039
34.5875	370.0948	9.535801
34.59583	370.179	9.533576
34.60417	370.2586	9.531361
34.6125	370.3412	9.529142
34.62084	370.4262	9.526869
34.62916	370.5079	9.524569
34.6375	370.5913	9.522316
34.64583	370.675	9.520068
34.65417	370.758	9.517831
34.6625	370.8432	9.515531
34.67084	370.9208	9.513257
34.67916	371.0078	9.510962
34.6875	371.0889	9.508649
34.69584	371.1734	9.506389
34.70416	371.2562	9.504169
34.7125	371.3372	9.501912
34.72083	371.421	9.499628
34.72917	371.5041	9.497374
34.7375	371.5866	9.495086
34.74584	371.6684	9.492801
34.75416	371.7522	9.490484
34.7625	371.8338	9.488162
34.77083	371.9179	9.485844
34.77917	371.9997	9.483514
34.7875	372.0826	9.481132
34.79584	372.1663	9.478778
34.80416	372.2496	9.476416
34.8125	372.332	9.474016
34.82084	372.416	9.471632
34.82916	372.4982	9.469243
34.8375	372.58	9.466849
34.84583	372.6648	9.464458
34.85417	372.749	9.462032
34.8625	372.8332	9.459582
34.87084	372.9135	9.457201
34.87916	372.9954	9.454809
34.8875	373.0786	9.452394
34.89583	373.1693	9.449965
34.90417	373.2565	9.447519
34.9125	373.337	9.445055
34.92084	373.4196	9.442628
34.92916	373.5042	9.440189
34.9375	373.5888	9.437769
34.94584	373.6708	9.435328
34.95416	373.7548	9.432834
34.9625	373.835	9.43036
34.97083	373.9182	9.427891
34.97917	374.0002	9.425399
34.9875	374.0845	9.422908
34.99584	374.1648	9.420434
35.00416	374.2505	9.417928
35.0125	374.3314	9.415399
35.02083	374.4138	9.412869
35.02917	374.4912	9.410369
35.0375	374.5706	9.407856
35.04584	374.6543	9.405269
35.05416	374.738	9.402704
35.0625	374.8209	9.400148
35.07084	374.905	9.397595
35.07916	374.9863	9.395032
35.0875	375.0678	9.392492
35.09583	375.1494	9.389922
35.10417	375.2348	9.38732
35.1125	375.3155	9.384711
35.12084	375.3993	9.382113
35.12916	375.4839	9.379569
35.1375	375.566	9.376978
35.14583	375.647	9.374359
35.15417	375.7314	9.371786
35.1625	375.8118	9.369162
35.17084	375.9007	9.366503
35.17916	375.9806	9.363907
35.1875	376.0612	9.361264
35.19584	376.1446	9.358642
35.20416	376.2284	9.356032
35.2125	376.3134	9.353399
35.22083	376.393	9.350734
35.22917	376.4742	9.348125
35.2375	376.5596	9.345399
35.24584	376.6438	9.342699
35.25416	376.7236	9.340045
35.2625	376.8091	9.337343
35.27083	376.894	9.334659
35.27917	376.9738	9.331895
35.2875	377.0574	9.329162
35.29584	377.1374	9.326446
35.30416	377.2211	9.323741
35.3125	377.304	9.320959
35.32084	377.386	9.318256
35.32916	377.4708	9.315528
35.3375	377.5529	9.312715
35.34583	377.6364	9.309903
35.35417	377.7208	9.307132
35.3625	377.8028	9.304431
35.37084	377.8852	9.301652
35.37916	377.968	9.29884
35.3875	378.051	9.296014
35.39583	378.1326	9.293234
35.40417	378.2156	9.290399
35.4125	378.2976	9.287556
35.42084	378.3782	9.284751
35.42916	378.465	9.281972
35.4375	378.5491	9.279166
35.44584	378.629	9.276303
35.45416	378.7114	9.273499
35.4625	378.7935	9.27063
35.47083	378.8786	9.267782
35.47917	378.962	9.26491
35.4875	379.0433	9.262059
35.49584	379.1269	9.259228
35.50416	379.2078	9.256384
35.5125	379.2912	9.253514
35.52083	379.3719	9.250601
35.52917	379.4571	9.247688
35.5375	379.5395	9.244699
35.54584	379.6209	9.241791
35.55416	379.7046	9.238859
35.5625	379.7873	9.235918
35.57084	379.8694	9.233016
35.57916	379.9513	9.230011
35.5875	380.0356	9.227035
35.59583	380.1172	9.224053
35.60417	380.1992	9.221078
35.6125	380.2834	9.218106
35.62084	380.3662	9.215132
35.62916	380.448	9.212134
35.6375	380.5316	9.20914
35.64583	380.6136	9.206152
35.65417	380.697	9.203082
35.6625	380.7783	9.200094
35.67084	380.8634	9.197024
35.67916	380.951	9.193878
35.6875	381.0256	9.190788
35.69584	381.1113	9.18768
35.70416	381.1938	9.184613
35.7125	381.2768	9.181506
35.72083	381.3576	9.178394
35.72917	381.442	9.175288
35.7375	381.5232	9.172209
35.74584	381.6096	9.16911
35.75416	381.6906	9.166024
35.7625	381.7715	9.162991
35.77083	381.8535	9.159894
35.77917	381.9391	9.156795
35.7875	382.0216	9.153668
35.79584	382.1088	9.150569
35.80416	382.195	9.147444
35.8125	382.278	9.144218
35.82084	382.3598	9.141012
35.82916	382.445	9.137816
35.8375	382.524	9.134574
35.84583	382.6085	9.131369
35.85417	382.6902	9.128211
35.8625	382.7744	9.124995
35.87084	382.856	9.121746
35.87916	382.9391	9.118503
35.8875	383.0203	9.115308
35.89583	383.1039	9.112153
35.90417	383.184	9.108944
35.9125	383.2724	9.105709
35.92084	383.352	9.102512
35.92916	383.4336	9.099275
35.9375	383.5169	9.095986
35.94584	383.6	9.092705
35.95416	383.6828	9.08942
35.9625	383.7667	9.086122
35.97083	383.8478	9.082781
35.97917	383.9326	9.079454
35.9875	384.0126	9.076105
35.99584	384.0973	9.072816
36.00416	384.1803	9.069475
36.0125	384.2599	9.066118
36.02083	384.3352	9.062734
36.02917	384.4181	9.059363
36.0375	384.504	9.055985
36.04584	384.5824	9.052599
36.05416	384.6656	9.049194
36.0625	384.7468	9.045789
36.07084	384.8312	9.042391
36.07916	384.915	9.038925
36.0875	384.9961	9.035506
36.09583	385.0794	9.03208
36.10417	385.1629	9.028656
36.1125	385.2442	9.02523
36.12084	385.3313	9.021801
36.12916	385.4196	9.01836
36.1375	385.4996	9.01493
36.14583	385.5833	9.011488
36.15417	385.6586	9.008022
36.1625	385.7412	9.004525
36.17084	385.827	9.001038
36.17916	385.9061	8.997522
36.1875	385.9897	8.994012
36.19584	386.0706	8.9905
36.20416	386.1542	8.986944
36.2125	386.2384	8.983341
36.22083	386.3215	8.979719
36.22917	386.4074	8.976063
36.2375	386.4954	8.972445
36.24584	386.5791	8.968799
36.25416	386.6592	8.965109
36.2625	386.7446	8.961395
36.27083	386.8253	8.957624
36.27917	386.9006	8.953882
36.2875	386.9824	8.950136
36.29584	387.0679	8.946391
36.30416	387.1476	8.942621
36.3125	387.232	8.938838
36.32084	387.313	8.935005
36.32916	387.3946	8.931259
36.3375	387.481	8.927556
36.34583	387.5633	8.923862
36.35417	387.6475	8.920206
36.3625	387.7262	8.916503
36.37084	387.8119	8.912814
36.37916	387.8965	8.909109
36.3875	387.9778	8.905439
36.39583	388.0606	8.901762
36.40417	388.1469	8.898099
36.4125	388.2275	8.894391
36.42084	388.3168	8.890606
36.42916	388.3953	8.886805
36.4375	388.4792	8.882959
36.44584	388.5619	8.879144
36.45416	388.6459	8.875259
36.4625	388.7289	8.871369
36.47083	388.8117	8.867508
36.47917	388.8958	8.863655
36.4875	388.9776	8.859764
36.49584	389.0606	8.855864
36.50416	389.1436	8.851991
36.5125	389.2275	8.84815
36.52083	389.3089	8.844318
36.52917	389.3928	8.840438
36.5375	389.4776	8.836592
36.54584	389.5604	8.832734
36.55416	389.6455	8.828806
36.5625	389.7266	8.824878
36.57084	389.811	8.820937
36.57916	389.8953	8.817022
36.5875	389.9772	8.813046
36.59583	390.0598	8.809003
36.60417	390.145	8.804985
36.6125	390.2265	8.800926
36.62084	390.3115	8.796851
36.62916	390.3938	8.79278
36.6375	390.4768	8.788665
36.64583	390.561	8.784618
36.65417	390.6455	8.780494
36.6625	390.7298	8.776301
36.67084	390.8106	8.772131
36.67916	390.8948	8.767981
36.6875	390.9788	8.7638
36.69584	391.0605	8.759603
36.70416	391.1437	8.755426
36.7125	391.229	8.751303
36.72083	391.3141	8.747236
36.72917	391.3997	8.743019
36.7375	391.4797	8.738861
36.74584	391.568	8.734762
36.75416	391.6572	8.730626
36.7625	391.738	8.726456
36.77083	391.8218	8.722266
36.77917	391.906	8.718112
36.7875	391.989	8.713912
36.79584	392.0714	8.70963
36.80416	392.1564	8.705362
36.8125	392.2405	8.701094
36.82084	392.3216	8.696793
36.82916	392.4084	8.6924
36.8375	392.4904	8.688028
36.84583	392.5684	8.683626
36.85417	392.6485	8.679266
36.8625	392.7306	8.674872
36.87084	392.8154	8.67047
36.87916	392.898	8.666053
36.8875	392.9817	8.661561
36.89583	393.0656	8.657106
36.90417	393.1478	8.652696
36.9125	393.2304	8.648253
36.92084	393.3154	8.643772
36.92916	393.3971	8.639312
36.9375	393.4815	8.634796
36.94584	393.5648	8.630282
36.95416	393.6479	8.625764
36.9625	393.7306	8.621212
36.97083	393.8141	8.616661
36.97917	393.8976	8.612101
36.9875	393.9844	8.607545
36.99584	394.069	8.603045
37.00416	394.1534	8.598526
37.0125	394.235	8.594025
37.02083	394.3195	8.589526
37.02917	394.4041	8.584984
37.0375	394.4912	8.580444
37.04584	394.5744	8.575881
37.05416	394.6588	8.571322
37.0625	394.744	8.566731
37.07084	394.8286	8.562064
37.07916	394.9164	8.557368
37.0875	394.9972	8.55271
37.09583	395.0856	8.547962
37.10417	395.1697	8.54325
37.1125	395.2533	8.538531
37.12084	395.3384	8.533758
37.12916	395.4202	8.529012
37.1375	395.5079	8.524225
37.14583	395.5946	8.519429
37.15417	395.6776	8.514668
37.1625	395.7634	8.509872
37.17084	395.847	8.505031
37.17916	395.9344	8.500228
37.1875	396.0194	8.495401
37.19584	396.1055	8.490594
37.20416	396.1899	8.485795
37.2125	396.2736	8.480988
37.22083	396.3624	8.476228
37.22917	396.4464	8.471457
37.2375	396.5328	8.466605
37.24584	396.6168	8.461722
37.25416	396.7021	8.45685
37.2625	396.7862	8.451976
37.27083	396.872	8.447022
37.27917	396.9578	8.442018
37.2875	397.0443	8.437006
37.29584	397.1286	8.431992
37.30416	397.2131	8.426906
37.3125	397.2981	8.421819
37.32084	397.3844	8.416745
37.32916	397.4696	8.411675
37.3375	397.5568	8.406601
37.34583	397.6398	8.401505
37.35417	397.7355	8.396441
37.3625	397.818	8.391382
37.37084	397.9059	8.386322
37.37916	397.9918	8.38125
37.3875	398.0756	8.376172
37.39583	398.1611	8.371059
37.40417	398.2484	8.365942
37.4125	398.3334	8.360811
37.42084	398.4172	8.355656
37.42916	398.5037	8.350476
37.4375	398.5872	8.345257
37.44584	398.6686	8.340036
37.45416	398.7525	8.3348
37.4625	398.8344	8.329538
37.47083	398.9231	8.324282
37.47917	399.0052	8.319043
37.4875	399.0911	8.313772
37.49584	399.1791	8.308488
37.50416	399.2611	8.303168
37.5125	399.3472	8.297858
37.52083	399.435	8.292535
37.52917	399.519	8.287181
37.5375	399.6032	8.281851
37.54584	399.6891	8.276544
37.55416	399.7752	8.271203
37.5625	399.8617	8.26585
37.57084	399.9435	8.260514
37.57916	400.0318	8.255155
37.5875	400.1156	8.249765
37.59583	400.2024	8.244311
37.60417	400.291	8.238818
37.6125	400.3825	8.233336
37.62084	400.4656	8.227801
37.62916	400.5513	8.222194
37.6375	400.6362	8.216551
37.64583	400.7212	8.210878
37.65417	400.8041	8.205196
37.6625	400.8903	8.19953
37.67084	400.9771	8.193875
37.67916	401.0598	8.188211
37.6875	401.1453	8.182514
37.69584	401.2296	8.176843
37.70416	401.3154	8.171149
37.7125	401.3986	8.16545
37.72083	401.4776	8.15981
37.72917	401.5604	8.154187
37.7375	401.645	8.148545
37.74584	401.732	8.142806
37.75416	401.8162	8.13707
37.7625	401.9008	8.131332
37.77083	401.9847	8.125664
37.77917	402.068	8.119898
37.7875	402.1558	8.114074
37.79584	402.2374	8.108306
37.80416	402.3242	8.10251
37.8125	402.4086	8.096722
37.82084	402.4934	8.09085
37.82916	402.5789	8.085024
37.8375	402.663	8.079139
37.84583	402.7464	8.073242
37.85417	402.8314	8.067328
37.8625	402.917	8.061415
37.87084	403.0008	8.05554
37.87916	403.0856	8.049619
37.8875	403.1682	8.04359
37.89583	403.2534	8.037525
37.90417	403.3403	8.031431
37.9125	403.4235	8.025359
37.92084	403.5088	8.019306
37.92916	403.5936	8.013257
37.9375	403.6766	8.007153
37.94584	403.7622	8.001036
37.95416	403.8469	7.994887
37.9625	403.9301	7.988681
37.97083	404.0141	7.982522
37.97917	404.1002	7.976278
37.9875	404.1834	7.970141
37.99584	404.268	7.963952
38.00416	404.3519	7.957714
38.0125	404.4355	7.9515
38.02083	404.5207	7.945251
38.02917	404.6044	7.938976
38.0375	404.6902	7.932747
38.04584	404.7722	7.9265
38.05416	404.8524	7.92024
38.0625	404.9413	7.913866
38.07084	405.0253	7.907484
38.07916	405.116	7.901113
38.0875	405.2024	7.894776
38.09583	405.2875	7.888382
38.10417	405.3707	7.882
38.1125	405.4537	7.87562
38.12084	405.5378	7.869156
38.12916	405.6132	7.86272
38.1375	405.6985	7.856226
38.14583	405.7825	7.84986
38.15417	405.8652	7.84346
38.1625	405.9504	7.83701
38.17084	406.0328	7.830532
38.17916	406.1179	7.82403
38.1875	406.1994	7.817469
38.19584	406.2874	7.810924
38.20416	406.3697	7.804374
38.2125	406.4528	7.797775
38.22083	406.5368	7.791215
38.22917	406.619	7.784657
38.2375	406.7063	7.778025
38.24584	406.7962	7.77142
38.25416	406.8804	7.764782
38.2625	406.965	7.758126
38.27083	407.0481	7.751421
38.27917	407.1317	7.74462
38.2875	407.2148	7.737743
38.29584	407.2973	7.730738
38.30416	407.3733	7.723656
38.3125	407.4578	7.716464
38.32084	407.5395	7.709199
38.32916	407.6229	7.701813
38.3375	407.7078	7.69439
38.34583	407.8007	7.686972
38.35417	407.8828	7.67964
38.3625	407.9672	7.67228
38.37084	408.0484	7.66489
38.37916	408.132	7.65762
38.3875	408.2062	7.650425
38.39583	408.2917	7.64324
38.40417	408.3743	7.63612
38.4125	408.4574	7.629038
38.42084	408.541	7.621954
38.42916	408.6241	7.614814
38.4375	408.7091	7.607601
38.44584	408.7914	7.600459
38.45416	408.8726	7.593387
38.4625	408.9565	7.586224
38.47083	409.041	7.57903
38.47917	409.1248	7.571856
38.4875	409.2074	7.564674
38.49584	409.2907	7.557452
38.50416	409.372	7.550122
38.5125	409.4565	7.542786
38.52083	409.54	7.535403
38.52917	409.6219	7.527911
38.5375	409.7053	7.520348
38.54584	409.7894	7.512769
38.55416	409.8704	7.50512
38.5625	409.9562	7.497444
38.57084	410.038	7.48971
38.57916	410.1214	7.482034
38.5875	410.2062	7.474444
38.59583	410.2906	7.466837
38.60417	410.3725	7.45925
38.6125	410.4544	7.451753
38.62084	410.5359	7.444287
38.62916	410.619	7.436866
38.6375	410.7061	7.429419
38.64583	410.7855	7.421869
38.65417	410.868	7.4143
38.6625	410.9528	7.406674
38.67084	411.0339	7.398991
38.67916	411.1176	7.391308
38.6875	411.2025	7.38362
38.69584	411.2842	7.375899
38.70416	411.3681	7.368124
38.7125	411.4504	7.360212
38.72083	411.5346	7.352286
38.72917	411.6167	7.34441
38.7375	411.6992	7.336501
38.74584	411.7822	7.328563
38.75416	411.869	7.320663
38.7625	411.9559	7.312735
38.77083	412.0395	7.3048
38.77917	412.1213	7.296826
38.7875	412.1994	7.288828
38.79584	412.2794	7.280866
38.80416	412.359	7.272905
38.8125	412.444	7.264878
38.82084	412.5294	7.25677
38.82916	412.6107	7.248658
38.8375	412.6953	7.240444
38.84583	412.776	7.232263
38.85417	412.8598	7.224028
38.8625	412.9426	7.215766
38.87084	413.0254	7.207501
38.87916	413.11	7.199238
38.8875	413.1935	7.1909
38.89583	413.2756	7.18263
38.90417	413.3586	7.174493
38.9125	413.4414	7.166281
38.92084	413.526	7.157997
38.92916	413.6047	7.149594
38.9375	413.6905	7.141132
38.94584	413.7724	7.132584
38.95416	413.8568	7.12403
38.9625	413.939	7.115388
38.97083	414.0196	7.106687
38.97917	414.1053	7.097861
38.9875	414.1869	7.088836
38.99584	414.2684	7.079792
39.00416	414.352	7.070708
39.0125	414.435	7.06154
39.02083	414.518	7.052306
39.02917	414.6005	7.04307
39.0375	414.6798	7.033788
39.04584	414.7652	7.024484
39.05416	414.8466	7.015234
39.0625	414.9312	7.006016
39.07084	415.0134	6.996884
39.07916	415.097	6.987782
39.0875	415.178	6.978798
39.09583	415.2606	6.969913
39.10417	415.3456	6.96108
39.1125	415.4243	6.95221
39.12084	415.5194	6.943199
39.12916	415.6021	6.934175
39.1375	415.6853	6.92517
39.14583	415.7685	6.916141
39.15417	415.8459	6.907078
39.1625	415.9244	6.898005
39.17084	416.0092	6.888824
39.17916	416.089	6.879549
39.1875	416.173	6.870261
39.19584	416.2551	6.860968
39.20416	416.3374	6.851716
39.2125	416.4217	6.842384
39.22083	416.502	6.832889
39.22917	416.587	6.823312
39.2375	416.6689	6.813721
39.24584	416.7528	6.804101
39.25416	416.8362	6.794485
39.2625	416.9208	6.784838
39.27083	417.0018	6.775097
39.27917	417.0842	6.76532
39.2875	417.1662	6.75551
39.29584	417.2494	6.74581
39.30416	417.3334	6.73625
39.3125	417.417	6.726738
39.32084	417.4996	6.717211
39.32916	417.5806	6.707562
39.3375	417.6639	6.697871
39.34583	417.744	6.688165
39.35417	417.8303	6.678409
39.3625	417.9106	6.668772
39.37084	417.9944	6.659265
39.37916	418.0772	6.649716
39.3875	418.1602	6.640084
39.39583	418.2434	6.630384
39.40417	418.3289	6.620624
39.4125	418.4086	6.610863
39.42084	418.492	6.601113
39.42916	418.5753	6.5914
39.4375	418.6582	6.581738
39.44584	418.7394	6.572039
39.45416	418.8241	6.562206
39.4625	418.9079	6.55219
39.47083	418.9894	6.542056
39.47917	419.072	6.531976
39.4875	419.1532	6.521892
39.49584	419.2407	6.51187
39.50416	419.3212	6.501899
39.5125	419.4033	6.491957
39.52083	419.4872	6.482021
39.52917	419.5716	6.471926
39.5375	419.653	6.461766
39.54584	419.7358	6.451736
39.55416	419.8178	6.441798
39.5625	419.9036	6.431791
39.57084	419.985	6.421686
39.57916	420.0672	6.411402
39.5875	420.1498	6.400925
39.59583	420.234	6.390264
39.60417	420.3266	6.37968
39.6125	420.4084	6.36903
39.62084	420.4918	6.358407
39.62916	420.5764	6.347762
39.6375	420.6586	6.33705
39.64583	420.7426	6.326258
39.65417	420.814	6.315429
39.6625	420.8954	6.304594
39.67084	420.9818	6.293768
39.67916	421.0642	6.28294
39.6875	421.1453	6.271902
39.69584	421.2287	6.26083
39.70416	421.3114	6.24984
39.7125	421.3959	6.23888
39.72083	421.479	6.227953
39.72917	421.5614	6.217178
39.7375	421.6452	6.206403
39.74584	421.726	6.195672
39.75416	421.8101	6.184891
39.7625	421.8918	6.174149
39.77083	421.976	6.163489
39.77917	422.0578	6.152935
39.7875	422.1416	6.142316
39.79584	422.2254	6.131646
39.80416	422.307	6.12091
39.8125	422.39	6.109972
39.82084	422.4738	6.09905
39.82916	422.5558	6.08822
39.8375	422.6362	6.077448
39.84583	422.723	6.066629
39.85417	422.8058	6.055729
39.8625	422.8884	6.04471
39.87084	422.9706	6.0335
39.87916	423.0545	6.022185
39.8875	423.1399	6.010737
39.89583	423.2209	5.999244
39.90417	423.305	5.987661
39.9125	423.3882	5.975925
39.92084	423.4706	5.96416
39.92916	423.552	5.952392
39.9375	423.6383	5.940671
39.94584	423.7205	5.929042
39.95416	423.8047	5.917488
39.9625	423.8872	5.906012
39.97083	423.9709	5.894609
39.97917	424.0534	5.88324
39.9875	424.1352	5.871948
39.99584	424.2172	5.860661
40.00416	424.3031	5.849434
40.0125	424.3848	5.83817
40.02083	424.4692	5.826745
40.02917	424.5522	5.815055
40.0375	424.635	5.803138
40.04584	424.7192	5.791025
40.05416	424.8042	5.778889
40.0625	424.8852	5.766788
40.07084	424.9694	5.754662
40.07916	425.0512	5.742557
40.0875	425.1338	5.730378
40.09583	425.2183	5.718258
40.10417	425.3013	5.706186
40.1125	425.3834	5.694195
40.12084	425.4654	5.682388
40.12916	425.552	5.670707
40.1375	425.6326	5.659094
40.14583	425.7128	5.6474
40.15417	425.7996	5.635618
40.1625	425.8814	5.623716
40.17084	425.9634	5.61167
40.17916	426.0484	5.599531
40.1875	426.1313	5.587418
40.19584	426.2156	5.575318
40.20416	426.3004	5.56311
40.2125	426.3806	5.550748
40.22083	426.4632	5.538303
40.22917	426.5472	5.525845
40.2375	426.6302	5.513306
40.24584	426.7144	5.500781
40.25416	426.7967	5.488398
40.2625	426.88	5.475922
40.27083	426.9634	5.463326
40.27917	427.0462	5.45075
40.2875	427.1304	5.438238
40.29584	427.2131	5.425831
40.30416	427.2979	5.41334
40.3125	427.3782	5.400799
40.32084	427.4628	5.388388
40.32916	427.5456	5.376007
40.3375	427.6311	5.363495
40.34583	427.711	5.350937
40.35417	427.7948	5.338336
40.3625	427.8776	5.325618
40.37084	427.9622	5.312654
40.37916	428.0441	5.299512
40.3875	428.1287	5.286286
40.39583	428.2106	5.272945
40.40417	428.295	5.259373
40.4125	428.3758	5.245654
40.42084	428.4628	5.23194
40.42916	428.5454	5.218334
40.4375	428.6266	5.204761
40.44584	428.7117	5.191288
40.45416	428.7932	5.178126
40.4625	428.8756	5.165142
40.47083	428.9609	5.152191
40.47917	429.0456	5.139216
40.4875	429.1283	5.126222
40.49584	429.2098	5.11318
40.50416	429.2952	5.100056
40.5125	429.3776	5.08675
40.52083	429.4614	5.073325
40.52917	429.5432	5.05976
40.5375	429.6278	5.046079
40.54584	429.7106	5.032238
40.55416	429.7944	5.018374
40.5625	429.8792	5.004454
40.57084	429.961	4.990585
40.57916	430.0438	4.976831
40.5875	430.1254	4.963178
40.59583	430.2108	4.949611
40.60417	430.2948	4.935992
40.6125	430.3768	4.922274
40.62084	430.4629	4.908336
40.62916	430.5514	4.894197
40.6375	430.6365	4.879944
40.64583	430.7198	4.865762
40.65417	430.8034	4.851562
40.6625	430.8872	4.8373
40.67084	430.968	4.822908
40.67916	431.0533	4.808516
40.6875	431.1361	4.794356
40.69584	431.2116	4.780318
40.70416	431.2944	4.766442
40.7125	431.3766	4.752724
40.72083	431.4587	4.739107
40.72917	431.542	4.72541
40.7375	431.6262	4.711418
40.74584	431.7067	4.6973
40.75416	431.791	4.683186
40.7625	431.875	4.668903
40.77083	431.957	4.65437
40.77917	432.0416	4.639837
40.7875	432.1233	4.625315
40.79584	432.2092	4.610816
40.80416	432.2916	4.59616
40.8125	432.3753	4.581374
40.82084	432.4566	4.566736
40.82916	432.543	4.552074
40.8375	432.6244	4.537308
40.84583	432.7093	4.522564
40.85417	432.7906	4.507852
40.8625	432.8746	4.493019
40.87084	432.9571	4.478044
40.87916	433.0406	4.463019
40.8875	433.1229	4.448132
40.89583	433.2076	4.433447
40.90417	433.2896	4.418844
40.9125	433.3733	4.404218
40.92084	433.4531	4.389576
40.92916	433.5399	4.374786
40.9375	433.6228	4.359854
40.94584	433.7067	4.34489
40.95416	433.797	4.329834
40.9625	433.8816	4.314654
40.97083	433.9641	4.299411
40.97917	434.0478	4.284057
40.9875	434.1309	4.268687
40.99584	434.2064	4.253406
41.00416	434.2889	4.238186
41.0125	434.3714	4.22318
41.02083	434.4524	4.2082
41.02917	434.5369	4.193078
41.0375	434.6206	4.177956
41.04584	434.7028	4.16278
41.05416	434.7865	4.147545
41.0625	434.8703	4.132279
41.07084	434.9524	4.11691
41.07916	435.0376	4.10144
41.0875	435.1196	4.085794
41.09583	435.203	4.069906
41.10417	435.2858	4.053914
41.1125	435.3688	4.037884
41.12084	435.4536	4.0218
41.12916	435.5348	4.005592
41.1375	435.618	3.989243
41.14583	435.7025	3.972788
41.15417	435.784	3.956292
41.1625	435.869	3.939782
41.17084	435.9508	3.92323
41.17916	436.036	3.90661
41.1875	436.1193	3.89002
41.19584	436.1996	3.873654
41.20416	436.2844	3.857388
41.2125	436.3671	3.841265
41.22083	436.4486	3.824997
41.22917	436.5346	3.808464
41.2375	436.6143	3.791825
41.24584	436.7007	3.775076
41.25416	436.7828	3.75835
41.2625	436.8641	3.741784
41.27083	436.9492	3.725298
41.27917	437.0354	3.708684
41.2875	437.1167	3.69193
41.29584	437.1984	3.675027
41.30416	437.2826	3.65823
41.3125	437.3656	3.641708
41.32084	437.4482	3.625244
41.32916	437.5309	3.608803
41.3375	437.6126	3.592344
41.34583	437.6962	3.575804
41.35417	437.7816	3.559106
41.3625	437.8654	3.542212
41.37084	437.9444	3.525136
41.37916	438.0291	3.508038
41.3875	438.1139	3.490884
41.39583	438.1966	3.473655
41.40417	438.2816	3.456384
41.4125	438.3634	3.439044
41.42084	438.4458	3.421558
41.42916	438.5272	3.40408
41.4375	438.6148	3.386768
41.44584	438.7024	3.369686
41.45416	438.7869	3.35285
41.4625	438.8726	3.336147
41.47083	438.9542	3.31954
41.47917	439.0396	3.303012
41.4875	439.1214	3.286584
41.49584	439.2053	3.270216
41.50416	439.2862	3.253925
41.5125	439.3706	3.23755
41.52083	439.4549	3.22103
41.52917	439.538	3.204388
41.5375	439.6215	3.187648
41.54584	439.703	3.170812
41.55416	439.7871	3.153852
41.5625	439.869	3.136766
41.57084	439.9488	3.119491
41.57916	440.0344	3.10211
41.5875	440.1184	3.084636
41.59583	440.2016	3.067041
41.60417	440.2856	3.049318
41.6125	440.3687	3.031468
41.62084	440.4509	3.013552
41.62916	440.5329	2.99564
41.6375	440.6178	2.97771
41.64583	440.6984	2.959823
41.65417	440.7831	2.942207
41.6625	440.8602	2.924751
41.67084	440.9408	2.907454
41.67916	441.0244	2.890346
41.6875	441.1072	2.873446
41.69584	441.1903	2.85676
41.70416	441.2758	2.84023
41.7125	441.3622	2.82375
41.72083	441.4415	2.807349
41.72917	441.5235	2.791004
41.7375	441.6086	2.774559
41.74584	441.691	2.757936
41.75416	441.7756	2.74116
41.7625	441.8583	2.724305
41.77083	441.9409	2.707386
41.77917	442.0256	2.690314
41.7875	442.1091	2.673022
41.79584	442.1934	2.655554
41.80416	442.2763	2.63799
41.8125	442.358	2.620275
41.82084	442.4428	2.602387
41.82916	442.5252	2.58453
41.8375	442.6109	2.566747
41.84583	442.6932	2.549003
41.85417	442.7765	2.531258
41.8625	442.86	2.513498
41.87084	442.9454	2.495844
41.87916	443.0306	2.478301
41.8875	443.1124	2.460791
41.89583	443.1934	2.443268
41.90417	443.2766	2.425928
41.9125	443.3624	2.408719
41.92084	443.4443	2.39154
41.92916	443.5287	2.374349
41.9375	443.6108	2.357153
41.94584	443.6961	2.339986
41.95416	443.7786	2.32284
41.9625	443.8618	2.305681
41.97083	443.947	2.288564
41.97917	444.0312	2.27159
41.9875	444.1142	2.254618
41.99584	444.1963	2.237709
42.00416	444.2796	2.220939
42.0125	444.3644	2.204246
42.02083	444.4474	2.187618
42.02917	444.5324	2.171064
42.0375	444.6168	2.154522
42.04584	444.6998	2.138033
42.05416	444.784	2.121551
42.0625	444.8666	2.105108
42.07084	444.9512	2.088569
42.07916	445.0342	2.071884
42.0875	445.1196	2.055141
42.09583	445.2028	2.038356
42.10417	445.2872	2.021554
42.1125	445.3715	2.004748
42.12084	445.4536	1.987952
42.12916	445.5396	1.971251
42.1375	445.6213	1.954764
42.14583	445.7063	1.938398
42.15417	445.7914	1.92223
42.1625	445.8726	1.906202
42.17084	445.9564	1.89023
42.17916	446.043	1.874312
42.1875	446.1244	1.858457
42.19584	446.2098	1.842652
42.20416	446.2938	1.826919
42.2125	446.3782	1.811201
42.22083	446.4634	1.795401
42.22917	446.5468	1.779581
42.2375	446.6304	1.763765
42.24584	446.7147	1.747958
42.25416	446.7981	1.73217
42.2625	446.8858	1.716448
42.27083	446.967	1.700741
42.27917	447.0511	1.68511
42.2875	447.1369	1.669541
42.29584	447.2203	1.654056
42.30416	447.3065	1.638617
42.3125	447.3884	1.623216
42.32084	447.4726	1.607846
42.32916	447.5584	1.592504
42.3375	447.6421	1.577207
42.34583	447.7278	1.561946
42.35417	447.8117	1.546758
42.3625	447.8949	1.531592
42.37084	447.9804	1.516495
42.37916	448.0636	1.501426
42.3875	448.1462	1.48641
42.39583	448.2329	1.47142
42.40417	448.3187	1.45645
42.4125	448.4016	1.441531
42.42084	448.4847	1.42664
42.42916	448.57	1.411806
42.4375	448.6531	1.397022
42.44584	448.7382	1.382298
42.45416	448.8222	1.367614
42.4625	448.9072	1.352938
42.47083	448.9926	1.338328
42.47917	449.0773	1.323778
42.4875	449.1612	1.309267
42.49584	449.2474	1.294779
42.50416	449.3296	1.280365
42.5125	449.4154	1.266002
42.52083	449.5002	1.251653
42.52917	449.5846	1.237402
42.5375	449.6683	1.22316
42.54584	449.7558	1.208986
42.55416	449.8392	1.194878
42.5625	449.9231	1.180786
42.57084	450.0068	1.16677
42.57916	450.0926	1.152818
42.5875	450.1804	1.138909
42.59583	450.2626	1.125039
42.60417	450.3478	1.111256
42.6125	450.434	1.097462
42.62084	450.5178	1.083711
42.62916	450.6032	1.070057
42.6375	450.6843	1.056468
42.64583	450.7676	1.042932
42.65417	450.8539	1.029413
42.6625	450.9406	1.015973
42.67084	451.0257	1.002579
42.67916	451.109	0.9892882
42.6875	451.1943	0.9760068
42.69584	451.2794	0.9628035
42.70416	451.3636	0.9497156
42.7125	451.4488	0.9366219
42.72083	451.5347	0.9235499
42.72917	451.6172	0.9105559
42.7375	451.7026	0.8976861
42.74584	451.7869	0.8848619
42.75416	451.8757	0.8720951
42.7625	451.9572	0.8593458
42.77083	452.0434	0.8466952
42.77917	452.1292	0.8340875
42.7875	452.211	0.8215256
42.79584	452.2968	0.8090566
42.80416	452.3838	0.7966804
42.8125	452.4681	0.7843832
42.82084	452.5538	0.7721144
42.82916	452.6386	0.759893
42.8375	452.7229	0.7476897
42.84583	452.808	0.7355984
42.85417	452.895	0.7235788
42.8625	452.979	0.7116332
42.87084	453.061	0.6997419
42.87916	453.1464	0.6879241
42.8875	453.2326	0.6761412
42.89583	453.3175	0.6644345
42.90417	453.4024	0.6527957
42.9125	453.4848	0.6412993
42.92084	453.5715	0.6299449
42.92916	453.657	0.6185855
42.9375	453.7421	0.6073028
42.94584	453.8256	0.5961204
42.95416	453.9138	0.585018
42.9625	453.9987	0.5739812
42.97083	454.0826	0.563084
42.97917	454.1687	0.5523232
42.9875	454.256	0.5416148
42.99584	454.3404	0.5309098
43.00416	454.4253	0.520312
43.0125	454.5078	0.5098484
43.02083	454.5945	0.4994594
43.02917	454.6804	0.4891447
43.0375	454.7654	0.4789413
43.04584	454.85	0.4688318
43.05416	454.9375	0.4587657
43.0625	455.0287	0.4487476
43.07084	455.1116	0.4388453
43.07916	455.1932	0.4290738
43.0875	455.2778	0.419363
43.09583	455.3605	0.409745
43.10417	455.4474	0.4002168
43.1125	455.5316	0.3908052
43.12084	455.617	0.3815348
43.12916	455.703	0.3723373
43.1375	455.7863	0.3632796
43.14583	455.8729	0.3542967
43.15417	455.9553	0.3454369
43.1625	456.0434	0.3367016
43.17084	456.1303	0.328057
43.17916	456.2139	0.3194935
43.1875	456.3	0.3111022
43.19584	456.3844	0.3028412
43.20416	456.469	0.2946634
43.2125	456.5552	0.2866046
43.22083	456.6414	0.2786327
43.22917	456.7264	0.2708325
43.2375	456.8117	0.2631506
43.24584	456.8989	0.2555594
43.25416	456.982	0.2481314
43.2625	457.069	0.2408706
43.27083	457.153	0.2336843
43.27917	457.2382	0.2266264
43.2875	457.3237	0.2196787
43.29584	457.4092	0.2128688
43.30416	457.4965	0.2061885
43.3125	457.5788	0.1996037
43.32084	457.668	0.1931423
43.32916	457.7518	0.1868397
43.3375	457.8382	0.1806644
43.34583	457.921	0.1745672
43.35417	458.0093	0.168587
43.3625	458.094	0.1627039
43.37084	458.1805	0.1569402
43.37916	458.265	0.1513128
43.3875	458.3528	0.1458005
43.39583	458.4383	0.1404053
43.40417	458.5228	0.1351008
43.4125	458.6097	0.1298806
43.42084	458.6951	0.1247787
43.42916	458.782	0.1197821
43.4375	458.8668	0.114883
43.44584	458.9534	0.1100546
43.45416	459.0386	0.1053453
43.4625	459.1246	0.1007439
43.47083	459.2093	0.09614719
43.47917	459.2944	0.09165806
43.4875	459.3819	0.08729508
43.49584	459.466	0.08305382
43.50416	459.5525	0.07877939
43.5125	459.6393	0.07463593
43.52083	459.7244	0.07060015
43.52917	459.809	0.06666038
43.5375	459.8948	0.06277708
43.54584	459.9809	0.05897578
43.55416	460.0666	0.05533514
43.5625	460.1531	0.05173206
43.57084	460.2368	0.04813784
43.57916	460.3235	0.04456381
43.5875	460.4086	0.04115864
43.59583	460.4957	0.0377637
43.60417	460.5806	0.03442132
43.6125	460.6662	0.03116432
43.62084	460.7511	0.02795198
43.62916	460.8366	0.0247794
43.6375	460.9215	0.0216509
43.64583	461.0088	0.0185359
43.65417	461.092	0.01553093
43.6625	461.1803	0.01259412
43.67084	461.2654	0.009670722
43.67916	461.3494	0.00684522
43.6875	461.435	0.00404695
43.69584	461.5189	0.001280731
43.70416	461.6033	-1.46E-03
43.7125	461.689	-4.14E-03
43.72083	461.7752	-6.79E-03
43.72917	461.862	-9.34E-03
43.7375	461.948	-0.01187865
43.74584	462.0316	-0.01437589
43.75416	462.1168	-0.01681405
43.7625	462.2017	-0.01923909
43.77083	462.2883	-0.02160451
43.77917	462.3699	-0.02392252
43.7875	462.4584	-0.02621374
43.79584	462.5452	-0.02846317
43.80416	462.6264	-0.0306564
43.8125	462.7111	-0.0328335
43.82084	462.7961	-0.0349718
43.82916	462.8808	-0.03709755
43.8375	462.9682	-0.0391715
43.84583	463.0515	-0.0412506
43.85417	463.1367	-0.04328744
43.8625	463.2235	-0.04530388
43.87084	463.3104	-0.04726481
43.87916	463.388	-0.04921793
43.8875	463.4726	-0.05114266
43.89583	463.5572	-0.05307114
43.90417	463.6422	-0.0549457
43.9125	463.7278	-0.05677338
43.92084	463.8114	-0.05859409
43.92916	463.8968	-0.06034392
43.9375	463.9802	-0.06208706
43.94584	464.0657	-0.0637949
43.95416	464.1515	-0.0654882
43.9625	464.2364	-0.06716144
43.97083	464.3187	-0.06879335
43.97917	464.404	-0.0703772
43.9875	464.4884	-0.07194744
43.99584	464.5738	-0.07350218
44.00416	464.657	-0.07505632
44.0125	464.7415	-0.07657155
44.02083	464.8248	-0.07802488
44.02917	464.91	-0.07950446
44.0375	464.997	-0.0808457
44.04584	465.0804	-0.08222895
44.05416	465.1648	-0.08360572
44.0625	465.2498	-0.0849343
44.07084	465.3342	-0.08624034
44.07916	465.4208	-0.08752485
44.0875	465.5053	-0.08877731
44.09583	465.5964	-0.09004379
44.10417	465.6731	-0.0913382
44.1125	465.7592	-0.09256231
44.12084	465.8441	-0.09385613
44.12916	465.9298	-0.09506351
44.1375	466.014	-0.09624397
44.14583	466.1006	-0.09741775
44.15417	466.1844	-0.09856497
44.1625	466.269	-0.09967434
44.17084	466.3537	-0.1007493
44.17916	466.4396	-0.1017583
44.1875	466.5257	-0.1027107
44.19584	466.6126	-0.1036475
44.20416	466.697	-0.104563
44.2125	466.7832	-0.1054249
44.22083	466.873	-0.1062902
44.22917	466.9586	-0.1071031
44.2375	467.0396	-0.1078982
44.24584	467.1254	-0.1086569
44.25416	467.2137	-0.1093922
44.2625	467.2947	-0.1101488
44.27083	467.382	-0.1108918
44.27917	467.4662	-0.1116325
44.2875	467.5514	-0.1123291
44.29584	467.6391	-0.113028
44.30416	467.7274	-0.1136592
44.3125	467.8183	-0.1142953
44.32084	467.9104	-0.1149102
44.32916	468.0004	-0.1155019
44.3375	468.087	-0.1160429
44.34583	468.1713	-0.1165511
44.35417	468.2545	-0.117023
44.3625	468.3367	-0.1174443
44.37084	468.4212	-0.1178496
44.37916	468.5004	-0.1182374
44.3875	468.5828	-0.1186306
44.39583	468.6646	-0.1190009
44.40417	468.7492	-0.1193164
44.4125	468.8295	-0.1196161
44.42084	468.9136	-0.1199359
44.42916	468.9956	-0.1202136
44.4375	469.078	-0.1204701
44.44584	469.1606	-0.1207242
44.45416	469.2438	-0.1209588
44.4625	469.3258	-0.1211661
44.47083	469.4102	-0.121302
44.47917	469.4917	-0.1213713
44.4875	469.5781	-0.1215474
44.49584	469.6682	-0.1217071
44.50416	469.7481	-0.1218536
44.5125	469.8244	-0.1219415
44.52083	469.9092	-0.1220407
44.52917	469.9915	-0.122119
44.5375	470.075	-0.1221953
44.54584	470.1579	-0.1222724
44.55416	470.2424	-0.1223714
44.5625	470.3269	-0.1225117
44.57084	470.4149	-0.1225592
44.57916	470.5002	-0.12262
44.5875	470.5858	-0.1226173
44.59583	470.6615	-0.1226878
44.60417	470.7449	-0.1227466
44.6125	470.8294	-0.122786
44.62084	470.9139	-0.1227991
44.62916	470.9993	-0.1228102
44.6375	471.0815	-0.1228754
44.64583	471.1652	-0.1229179
44.65417	471.2498	-0.1229361
44.6625	471.3326	-0.1229077
44.67084	471.4185	-0.1229522
44.67916	471.5027	-0.1229744
44.6875	471.5868	-0.1230032
44.69584	471.6754	-0.1230566
44.70416	471.7558	-0.1231171
44.7125	471.8362	-0.1231636
44.72083	471.92	-0.1231744
44.72917	472.0059	-0.1231927
44.7375	472.0873	-0.1232256
44.74584	472.1724	-0.1232949
44.75416	472.259	-0.1233348
44.7625	472.3461	-0.1233812
44.77083	472.4332	-0.1234269
44.77917	472.5171	-0.1234518
44.7875	472.6004	-0.1234884
44.79584	472.6828	-0.1235087
44.80416	472.7667	-0.123543
44.8125	472.851	-0.1235999
44.82084	472.9346	-0.1236335
44.82916	473.0196	-0.1236827
44.8375	473.092	-0.1237142
44.84583	473.1762	-0.12373
44.85417	473.262	-0.1237271
44.8625	473.3459	-0.1237403
44.87084	473.4266	-0.123772
44.87916	473.5123	-0.1238311
44.8875	473.5941	-0.1238612
44.89583	473.6798	-0.1238807
44.90417	473.7645	-0.1239206
44.9125	473.85	-0.1239277
44.92084	473.9315	-0.1239513
44.92916	474.014	-0.1240053
44.9375	474.1	-0.1241296
44.94584	474.1832	-0.1242191
44.95416	474.265	-0.124264
44.9625	474.3488	-0.1242985
44.97083	474.433	-0.1243281
44.97917	474.5181	-0.1243366
44.9875	474.601	-0.1243706
44.99584	474.6822	-0.1244451
45.00416	474.767	-0.124494
45.0125	474.8518	-0.1244952
45.02083	474.938	-0.1244614
45.02917	475.0178	-0.1244436
45.0375	475.1018	-0.1244456
45.04584	475.1838	-0.1244472
45.05416	475.2687	-0.1244594
45.0625	475.351	-0.124498
45.07084	475.4366	-0.1245267
45.07916	475.5186	-0.1245286
45.0875	475.6032	-0.1245614
45.09583	475.6841	-0.124604
45.10417	475.7697	-0.124617
45.1125	475.8554	-0.1246312
45.12084	475.9382	-0.1246482
45.12916	476.021	-0.1246682
45.1375	476.105	-0.1246994
45.14583	476.1866	-0.1246868
45.15417	476.2706	-0.124697
45.1625	476.3529	-0.1247375
45.17084	476.4376	-0.1248001
45.17916	476.5206	-0.12484
45.1875	476.6033	-0.1248356
45.19584	476.6858	-0.1248823
45.20416	476.7696	-0.1249346
45.2125	476.8594	-0.1249684
45.22083	476.9363	-0.1249952
45.22917	477.02	-0.1250407
45.2375	477.1039	-0.1250378
45.24584	477.1889	-0.125022
45.25416	477.2687	-0.1249655
45.2625	477.3539	-0.1249295
45.27083	477.4366	-0.124968
45.27917	477.5288	-0.1249756
45.2875	477.6127	-0.1249527
45.29584	477.6942	-0.1249926
45.30416	477.7791	-0.1250214
45.3125	477.8624	-0.1250462
45.32084	477.9399	-0.1250913
45.32916	478.018	-0.1250928
45.3375	478.101	-0.1251222
45.34583	478.1862	-0.1251504
45.35417	478.2684	-0.125144
45.3625	478.3533	-0.1251647
45.37084	478.4366	-0.125205
45.37916	478.5198	-0.1252114
45.3875	478.6002	-0.1252112
45.39583	478.6858	-0.1252117
45.40417	478.768	-0.125208
45.4125	478.8519	-0.1252336
45.42084	478.9344	-0.1252193
45.42916	479.0175	-0.1252398
45.4375	479.1004	-0.1252763
45.44584	479.1891	-0.1252639
45.45416	479.2756	-0.1252573
45.4625	479.359	-0.125243
45.47083	479.443	-0.1252329
45.47917	479.5168	-0.1252284
45.4875	479.599	-0.1252472
45.49584	479.684	-0.1252459
45.50416	479.7652	-0.1252351
45.5125	479.8506	-0.1252504
45.52083	479.934	-0.1252504
45.52917	480.0126	-0.1252727
45.5375	480.0998	-0.1252867
45.54584	480.1807	-0.1253131
45.55416	480.2642	-0.1253671
45.5625	480.3488	-0.1254186
45.57084	480.4329	-0.1254548
45.57916	480.5152	-0.1255002
45.5875	480.5976	-0.1255681
45.59583	480.6826	-0.1255828
45.60417	480.7718	-0.1255918
45.6125	480.8544	-0.1255898
45.62084	480.9286	-0.1255993
45.62916	481.0128	-0.1255867
45.6375	481.0982	-0.1255593
45.64583	481.1795	-0.1255511
45.65417	481.2632	-0.1255266
45.6625	481.345	-0.1255059
45.67084	481.4272	-0.1254778
45.67916	481.5144	-0.1254741
45.6875	481.6038	-0.1254619
45.69584	481.686	-0.1254453
45.70416	481.7694	-0.1254174
45.7125	481.8539	-0.1254178
45.72083	481.926	-0.1254536
45.72917	482.0096	-0.1254505
45.7375	482.0962	-0.1254606
45.74584	482.1748	-0.1255373
45.75416	482.2589	-0.1255938
45.7625	482.342	-0.1256474
45.77083	482.4238	-0.1256935
45.77917	482.5076	-0.1257253
45.7875	482.5928	-0.1257732
45.79584	482.6744	-0.1258014
45.80416	482.7563	-0.1257947
45.8125	482.8404	-0.1258143
45.82084	482.9254	-0.1258263
45.82916	483.0056	-0.1257716
45.8375	483.0908	-0.1257123
45.84583	483.1742	-0.1256736
45.85417	483.2578	-0.1256531
45.8625	483.3424	-0.1256875
45.87084	483.4238	-0.1257044
45.87916	483.5055	-0.1257367
45.8875	483.5899	-0.1257489
45.89583	483.6716	-0.1257652
45.90417	483.7562	-0.1258032
45.9125	483.8379	-0.1258324
45.92084	483.922	-0.1258757
45.92916	484.0072	-0.1258675
45.9375	484.087	-0.125876
45.94584	484.171	-0.1258536
45.95416	484.2566	-0.1258302
45.9625	484.338	-0.1257938
45.97083	484.421	-0.1257424
45.97917	484.5038	-0.1257077
45.9875	484.5876	-0.125663
45.99584	484.6706	-0.1256236
46.00416	484.7547	-0.1255836
46.0125	484.8366	-0.1255612
46.02083	484.9196	-0.1255596
46.02917	485.0024	-0.1255718
46.0375	485.082	-0.125572
46.04584	485.1731	-0.1255816
46.05416	485.2521	-0.1256488
46.0625	485.3347	-0.125676
46.07084	485.4176	-0.1256956
46.07916	485.5009	-0.1257377
46.0875	485.5813	-0.125789
46.09583	485.6652	-0.1258298
46.10417	485.7514	-0.1258236
46.1125	485.831	-0.1257916
46.12084	485.9159	-0.1257703
46.12916	486.0008	-0.1257534
46.1375	486.0852	-0.1257062
46.14583	486.17	-0.1256746
46.15417	486.2484	-0.1256507
46.1625	486.3296	-0.1256168
46.17084	486.4157	-0.1255955
46.17916	486.4964	-0.1255679
46.1875	486.5816	-0.125594
46.19584	486.6631	-0.1256516
46.20416	486.7457	-0.1256699
46.2125	486.8306	-0.1256641
46.22083	486.9126	-0.1256809
46.22917	486.9951	-0.125677
46.2375	487.0784	-0.125664
46.24584	487.1593	-0.1257014
46.25416	487.246	-0.1256939
46.2625	487.3289	-0.1257559
46.27083	487.4117	-0.1257316
46.27917	487.4949	-0.1257
46.2875	487.5788	-0.1256992
46.29584	487.6622	-0.1257247
46.30416	487.7446	-0.125724
46.3125	487.8266	-0.1257651
46.32084	487.91	-0.1258125
46.32916	487.9948	-0.1257606
46.3375	488.0772	-0.1257764
46.34583	488.1608	-0.125706
46.35417	488.2478	-0.1257054
46.3625	488.3276	-0.1256904
46.37084	488.4078	-0.125697
46.37916	488.4914	-0.125674
46.3875	488.5746	-0.1256652
46.39583	488.658	-0.1256453
46.40417	488.7428	-0.1256371
46.4125	488.8234	-0.1256614
46.42084	488.9074	-0.1256362
46.42916	488.9917	-0.125658
46.4375	489.0732	-0.1256391
46.44584	489.1572	-0.1256354
46.45416	489.2413	-0.1256343
46.4625	489.3248	-0.1256357
46.47083	489.4063	-0.125671
46.47917	489.4904	-0.1257007
46.4875	489.5726	-0.1256704
46.49584	489.655	-0.1256508
46.50416	489.7408	-0.1256569
46.5125	489.824	-0.125671
46.52083	489.9078	-0.1257446
46.52917	489.9986	-0.1257666
46.5375	490.0794	-0.1257708
46.54584	490.1636	-0.1257975
46.55416	490.2466	-0.1258005
46.5625	490.3294	-0.125799
46.57084	490.4132	-0.1258429
46.57916	490.4947	-0.125864
46.5875	490.5802	-0.125811
46.59583	490.6606	-0.1257752
46.60417	490.7476	-0.1257077
46.6125	490.828	-0.1256406
46.62084	490.9117	-0.1255637
46.62916	490.9952	-0.1255039
46.6375	491.0768	-0.1254517
46.64583	491.1603	-0.1253889
46.65417	491.2447	-0.1253365
46.6625	491.3276	-0.1252947
46.67084	491.4078	-0.1253111
46.67916	491.4906	-0.1253063
46.6875	491.5747	-0.1253126
46.69584	491.6564	-0.1253469
46.70416	491.7348	-0.1254008
46.7125	491.8167	-0.1254366
46.72083	491.9014	-0.12546
46.72917	491.982	-0.1254966
46.7375	492.0661	-0.1255205
46.74584	492.1498	-0.125579
46.75416	492.2312	-0.1256582
46.7625	492.3136	-0.125723
46.77083	492.3974	-0.125762
46.77917	492.4806	-0.1257756
46.7875	492.5656	-0.1257541
46.79584	492.6465	-0.1257537
46.80416	492.7306	-0.1257506
46.8125	492.8131	-0.1257338
46.82084	492.8967	-0.1257009
46.82916	492.9811	-0.125652
46.8375	493.0663	-0.1256064
46.84583	493.1484	-0.1255675
46.85417	493.2294	-0.1255206
46.8625	493.3137	-0.1254945
46.87084	493.3994	-0.1255131
46.87916	493.4825	-0.1254701
46.8875	493.5644	-0.1254231
46.89583	493.6456	-0.1254146
46.90417	493.731	-0.1254315
46.9125	493.8125	-0.1254306
46.92084	493.8967	-0.1253958
46.92916	493.9802	-0.1253923
46.9375	494.0634	-0.1254562
46.94584	494.1467	-0.1254482
46.95416	494.2352	-0.1254098
46.9625	494.3119	-0.1254733
46.97083	494.3958	-0.1255068
46.97917	494.48	-0.1255111
46.9875	494.5631	-0.1255018
46.99584	494.644	-0.1254974
47.00416	494.7296	-0.1255328
47.0125	494.8118	-0.1255159
47.02083	494.8943	-0.1254152
47.02917	494.9784	-0.1254154
47.0375	495.0642	-0.1254341
47.04584	495.1469	-0.1253771
47.05416	495.2272	-0.1253224
47.0625	495.3105	-0.1253244
47.07084	495.3966	-0.1253216
47.07916	495.4772	-0.1253079
47.0875	495.5628	-0.1252688
47.09583	495.6443	-0.1252658
47.10417	495.7277	-0.1253096
47.1125	495.8126	-0.1253144
47.12084	495.8938	-0.125284
47.12916	495.9771	-0.1252619
47.1375	496.0627	-0.1252918
47.14583	496.145	-0.1252462
47.15417	496.226	-0.1252018
47.1625	496.3096	-0.1252095
47.17084	496.3918	-0.1251962
47.17916	496.4784	-0.1251776
47.1875	496.5572	-0.1251584
47.19584	496.6445	-0.1251544
47.20416	496.7265	-0.1251989
47.2125	496.8092	-0.1252194
47.22083	496.8964	-0.1252038
47.22917	496.9788	-0.1252436
47.2375	497.061	-0.1252944
47.24584	497.1438	-0.125363
47.25416	497.2272	-0.12544
47.2625	497.3087	-0.1254662
47.27083	497.3931	-0.125492
47.27917	497.4752	-0.1255117
47.2875	497.56	-0.1254853
47.29584	497.6434	-0.1254695
47.30416	497.728	-0.125497
47.3125	497.8106	-0.1254766
47.32084	497.892	-0.1254619
47.32916	497.9771	-0.1253838
47.3375	498.0597	-0.1253311
47.34583	498.1416	-0.1253157
47.35417	498.2254	-0.1252686
47.3625	498.31	-0.1252529
47.37084	498.3916	-0.1252738
47.37916	498.475	-0.125273
47.3875	498.5594	-0.1252709
47.39583	498.6422	-0.1252718
47.40417	498.7284	-0.1252843
47.4125	498.8172	-0.1252916
47.42084	498.8946	-0.125281
47.42916	498.9776	-0.1252979
47.4375	499.0596	-0.1253216
47.44584	499.1442	-0.1253206
47.45416	499.2274	-0.1253539
47.4625	499.3086	-0.1253822
47.47083	499.3919	-0.1254067
47.47917	499.4864	-0.1254484
47.4875	499.5678	-0.12547
47.49584	499.6511	-0.1255202
47.50416	499.735	-0.1255716
47.5125	499.8188	-0.1256475
47.52083	499.9018	-0.1256928
47.52917	499.9848	-0.125696
47.5375	500.0672	-0.1256877
47.54584	500.1489	-0.1257147
47.55416	500.2336	-0.1256982
47.5625	500.3152	-0.1256886
47.57084	500.3996	-0.1256575
47.57916	500.4806	-0.1256373
47.5875	500.5648	-0.1256075
47.59583	500.65	-0.1255001
47.60417	500.7318	-0.1254584
47.6125	500.8178	-0.1254372
47.62084	500.8981	-0.1254022
47.62916	500.9839	-0.1253782
47.6375	501.068	-0.1253948
47.64583	501.1438	-0.1254141
47.65417	501.2226	-0.1254875
47.6625	501.3074	-0.1255286
47.67084	501.3962	-0.1255981
47.67916	501.477	-0.1256562
47.6875	501.5585	-0.1256567
47.69584	501.6395	-0.125714
47.70416	501.7256	-0.1257424
47.7125	501.8074	-0.1257628
47.72083	501.8918	-0.1257556
47.72917	501.9736	-0.1257282
47.7375	502.0576	-0.1256717
47.74584	502.1416	-0.12562
47.75416	502.2207	-0.1255666
47.7625	502.3047	-0.1254783
47.77083	502.3878	-0.1254837
47.77917	502.4704	-0.1254418
47.7875	502.5534	-0.1254118
47.79584	502.6364	-0.1253857
47.80416	502.722	-0.1253354
47.8125	502.8028	-0.1253298
47.82084	502.8892	-0.1253121
47.82916	502.9707	-0.1252991
47.8375	503.0544	-0.1252723
47.84583	503.136	-0.1253075
47.85417	503.2202	-0.1252784
47.8625	503.3032	-0.1252587
47.87084	503.3883	-0.1252355
47.87916	503.4716	-0.1252108
47.8875	503.5529	-0.1252264
47.89583	503.6369	-0.125194
47.90417	503.7194	-0.1251892
47.9125	503.8044	-0.1251798
47.92084	503.887	-0.1251626
47.92916	503.9698	-0.1251806
47.9375	504.0528	-0.125206
47.94584	504.138	-0.1252142
47.95416	504.221	-0.1252358
47.9625	504.3012	-0.1252402
47.97083	504.3882	-0.1252299
47.97917	504.4688	-0.1252386
47.9875	504.5529	-0.125243
47.99584	504.6368	-0.1252613
48.00416	504.719	-0.1252807
48.0125	504.8008	-0.1252615
48.02083	504.8888	-0.1252634
48.02917	504.97	-0.1252622
48.0375	505.0528	-0.1252693
48.04584	505.1359	-0.1252955
48.05416	505.2178	-0.1252991
48.0625	505.3025	-0.1252915
48.07084	505.385	-0.1252946
48.07916	505.4676	-0.1252745
48.0875	505.553	-0.1252721
48.09583	505.6352	-0.125291
48.10417	505.7198	-0.1253407
48.1125	505.8039	-0.1253418
48.12084	505.8869	-0.1253534
48.12916	505.9678	-0.1253607
48.1375	506.0524	-0.1253952
48.14583	506.1382	-0.1254048
48.15417	506.2184	-0.125389
48.1625	506.3026	-0.1253904
48.17084	506.3854	-0.1253828
48.17916	506.468	-0.1253765
48.1875	506.5526	-0.1253322
48.19584	506.6384	-0.1253328
48.20416	506.7187	-0.1252686
48.2125	506.8024	-0.1252739
48.22083	506.8887	-0.1252575
48.22917	506.9789	-0.1252216
48.2375	507.0598	-0.1252172
48.24584	507.135	-0.1252146
48.25416	507.218	-0.1252185
48.2625	507.2998	-0.1252102
48.27083	507.3858	-0.1251862
48.27917	507.4679	-0.1252092
48.2875	507.5533	-0.1252606
48.29584	507.6354	-0.1252473
48.30416	507.72	-0.1252709
48.3125	507.807	-0.1253305
48.32084	507.8838	-0.1253358
48.32916	507.9694	-0.1253434
48.3375	508.0503	-0.1253534
48.34583	508.1344	-0.1253669
48.35417	508.2188	-0.1253833
48.3625	508.3014	-0.1253889
48.37084	508.3836	-0.1253708
48.37916	508.4671	-0.1253716
48.3875	508.5486	-0.12536
48.39583	508.6332	-0.1253184
48.40417	508.716	-0.1253003
48.4125	508.8	-0.1253014
48.42084	508.884	-0.1252946
48.42916	508.9658	-0.1252801
48.4375	509.0482	-0.1252956
48.44584	509.1338	-0.1252936
48.45416	509.215	-0.1253224
48.4625	509.299	-0.1253464
48.47083	509.3826	-0.1253687
48.47917	509.4674	-0.1254116
48.4875	509.55	-0.1254456
48.49584	509.6332	-0.1254421
48.50416	509.716	-0.1254482
48.5125	509.7987	-0.1254979
48.52083	509.8826	-0.1255143
48.52917	509.9646	-0.1254814
48.5375	510.0494	-0.1254295
48.54584	510.1322	-0.1253839
48.55416	510.2164	-0.1253584
48.5625	510.298	-0.1253473
48.57084	510.3824	-0.1253222
48.57916	510.4649	-0.1253183
48.5875	510.549	-0.1253038
48.59583	510.6339	-0.1252658
48.60417	510.7176	-0.1252225
48.6125	510.7998	-0.1252237
48.62084	510.8834	-0.1252509
48.62916	510.9649	-0.1252508
48.6375	511.0485	-0.1252366
48.64583	511.1338	-0.1252337
48.65417	511.215	-0.1252488
48.6625	511.2988	-0.125251
48.67084	511.3838	-0.1252551
48.67916	511.4649	-0.1252678
48.6875	511.5478	-0.1252715
48.69584	511.6326	-0.1252723
48.70416	511.7165	-0.1252823
48.7125	511.7974	-0.1252593
48.72083	511.8809	-0.1252559
48.72917	511.965	-0.125261
48.7375	512.0484	-0.1252814
48.74584	512.13	-0.1252914
48.75416	512.2144	-0.1252978
48.7625	512.2969	-0.1252948
48.77083	512.3834	-0.125329
48.77917	512.4637	-0.1253165
48.7875	512.549	-0.1253084
48.79584	512.633	-0.1253237
48.80416	512.7148	-0.1252923
48.8125	512.7996	-0.1252609
48.82084	512.8814	-0.1252359
48.82916	512.9649	-0.1252179
48.8375	513.046	-0.1252123
48.84583	513.13	-0.125193
48.85417	513.2162	-0.1251305
48.8625	513.2966	-0.1251698
48.87084	513.3819	-0.1251777
48.87916	513.4676	-0.1251675
48.8875	513.5478	-0.1251593
48.89583	513.6318	-0.1251454
48.90417	513.7144	-0.1251117
48.9125	513.7981	-0.1251099
48.92084	513.8799	-0.1250911
48.92916	513.9629	-0.1250791
48.9375	514.0502	-0.1250601
48.94584	514.1334	-0.1250535
48.95416	514.2141	-0.1250575
48.9625	514.2974	-0.1251016
48.97083	514.3816	-0.1251168
48.97917	514.4658	-0.125135
48.9875	514.5481	-0.1251485
48.99584	514.6312	-0.1251466
49.00416	514.7152	-0.1251502
49.0125	514.7976	-0.1251436
49.02083	514.8828	-0.1251652
49.02917	514.9672	-0.1251486
49.0375	515.0474	-0.1251393
49.04584	515.1309	-0.1250844
49.05416	515.215	-0.1250564
49.0625	515.2963	-0.1250437
49.07084	515.3776	-0.1250596
49.07916	515.462	-0.1250395
49.0875	515.5484	-0.1250376
49.09583	515.629	-0.1250492
49.10417	515.7129	-0.1250538
49.1125	515.7951	-0.1250876
49.12084	515.8778	-0.125147
49.12916	515.9648	-0.1252298
49.1375	516.0456	-0.1253118
49.14583	516.1294	-0.125372
49.15417	516.2131	-0.1253738
49.1625	516.2952	-0.1254154
49.17084	516.3794	-0.1254175
49.17916	516.4625	-0.1254508
49.1875	516.5481	-0.1254608
49.19584	516.6363	-0.125409
49.20416	516.7192	-0.1253362
49.2125	516.8028	-0.1252651
49.22083	516.8866	-0.1252149
49.22917	516.9707	-0.1251713
49.2375	517.0522	-0.1251676
49.24584	517.1343	-0.1251572
49.25416	517.2146	-0.1251372
49.2625	517.2921	-0.1250935
49.27083	517.377	-0.1251001
49.27917	517.46	-0.125132
49.2875	517.5444	-0.1251581
49.29584	517.6269	-0.1251693
49.30416	517.71	-0.1251742
49.3125	517.7947	-0.1251672
49.32084	517.8753	-0.1252057
49.32916	517.9602	-0.1252768
49.3375	518.0442	-0.1253058
49.34583	518.127	-0.1253107
49.35417	518.2153	-0.1253496
49.3625	518.2959	-0.1253476
49.37084	518.376	-0.1253186
49.37916	518.461	-0.125313
49.3875	518.5418	-0.1253406
49.39583	518.6238	-0.1253257
49.40417	518.7088	-0.1252653
49.4125	518.7904	-0.1252336
49.42084	518.8758	-0.1252359
49.42916	518.959	-0.1252602
49.4375	519.043	-0.1252476
49.44584	519.1256	-0.125253
49.45416	519.2079	-0.1252785
49.4625	519.2917	-0.1252596
49.47083	519.375	-0.1252201
49.47917	519.459	-0.1252524
49.4875	519.5426	-0.125278
49.49584	519.6246	-0.1252407
49.50416	519.7082	-0.125235
49.5125	519.7906	-0.1251993
49.52083	519.8774	-0.1251657
49.52917	519.9582	-0.1251506
49.5375	520.0396	-0.125131
49.54584	520.1236	-0.1251726
49.55416	520.2076	-0.1252171
49.5625	520.2902	-0.1252237
49.57084	520.3742	-0.1252367
49.57916	520.4552	-0.1252325
49.5875	520.5469	-0.1252202
49.59583	520.623	-0.1252225
49.60417	520.7066	-0.1252037
49.6125	520.7913	-0.1251796
49.62084	520.8731	-0.1251637
49.62916	520.9579	-0.1251511
49.6375	521.0395	-0.1251694
49.64583	521.123	-0.1251601
49.65417	521.2055	-0.1251453
49.6625	521.29	-0.1251027
49.67084	521.3713	-0.1251186
49.67916	521.4556	-0.1251205
49.6875	521.5398	-0.1251353
49.69584	521.6216	-0.1251521
49.70416	521.7053	-0.1251622
49.7125	521.7881	-0.1251548
49.72083	521.872	-0.1251169
49.72917	521.9556	-0.1251334
49.7375	522.0391	-0.1251277
49.74584	522.1212	-0.1251718
49.75416	522.2039	-0.125155
49.7625	522.289	-0.1251476
49.77083	522.3713	-0.1251172
49.77917	522.4545	-0.125122
49.7875	522.5366	-0.1251239
49.79584	522.6196	-0.1251308
49.80416	522.7054	-0.1251126
49.8125	522.787	-0.1250794
49.82084	522.8694	-0.1250842
49.82916	522.952	-0.1250754
49.8375	523.0385	-0.1250869
49.84583	523.1158	-0.1251337
49.85417	523.1998	-0.1251603
49.8625	523.285	-0.125171
49.87084	523.375	-0.1252002
49.87916	523.46	-0.1252033
49.8875	523.5429	-0.1251813
49.89583	523.6259	-0.125197
49.90417	523.7092	-0.1251974
49.9125	523.7843	-0.125169
49.92084	523.8679	-0.1251744
49.92916	523.95	-0.1251394
49.9375	524.0362	-0.1251236
49.94584	524.1208	-0.1250912
49.95416	524.2026	-0.1250685
49.9625	524.2842	-0.125077
49.97083	524.3676	-0.1251284
49.97917	524.451	-0.1251694
49.9875	524.535	-0.1251976
49.99584	524.6164	-0.125252
50.00416	524.6988	-0.1252711
50.0125	524.7838	-0.1252956
50.02083	524.8674	-0.1253364
50.02917	524.952	-0.1253659
50.0375	525.0334	-0.1253802
50.04584	525.1188	-0.12539
50.05416	525.2022	-0.1253709
50.0625	525.2847	-0.1253277
50.07084	525.368	-0.1252868
50.07916	525.453	-0.1252468
50.0875	525.5355	-0.1252061
50.09583	525.6184	-0.125193
50.10417	525.702	-0.1251744
50.1125	525.7846	-0.1251645
50.12084	525.8682	-0.1251639
50.12916	525.9527	-0.1251378
50.1375	526.0337	-0.1251212
50.14583	526.1168	-0.125114
50.15417	526.1997	-0.1251372
50.1625	526.282	-0.1251454
50.17084	526.365	-0.1251486
50.17916	526.45	-0.1251419
50.1875	526.5346	-0.1251412
50.19584	526.6162	-0.1251314
50.20416	526.6976	-0.1251274
50.2125	526.7836	-0.1251578
50.22083	526.8654	-0.1252051
50.22917	526.9508	-0.1252328
50.2375	527.0324	-0.1252423
50.24584	527.1148	-0.1252585
50.25416	527.1974	-0.1253053
50.2625	527.282	-0.1253111
50.27083	527.364	-0.1253374
50.27917	527.4476	-0.1253808
50.2875	527.53	-0.1253962
50.29584	527.615	-0.1253935
50.30416	527.6967	-0.1253615
50.3125	527.7824	-0.1253125
50.32084	527.8639	-0.1253414
50.32916	527.9472	-0.1253257
50.3375	528.0294	-0.1253012
50.34583	528.1139	-0.1253103
50.35417	528.1951	-0.1253071
50.3625	528.28	-0.1253078
50.37084	528.3626	-0.1253024
50.37916	528.448	-0.1253112
50.3875	528.5295	-0.1253276
50.39583	528.612	-0.125345
50.40417	528.6966	-0.1252608
50.4125	528.78	-0.1252444
50.42084	528.8619	-0.125223
50.42916	528.9472	-0.1251919
50.4375	529.03	-0.1251349
50.44584	529.1137	-0.1251058
50.45416	529.1964	-0.1251241
50.4625	529.2789	-0.12511
50.47083	529.3612	-0.1250964
50.47917	529.447	-0.1250663
50.4875	529.5296	-0.125086
50.49584	529.6124	-0.1250862
50.50416	529.6967	-0.1250988
50.5125	529.7784	-0.1251283
50.52083	529.862	-0.125159
50.52917	529.946	-0.1251011
50.5375	530.028	-0.1250563
50.54584	530.1106	-0.1250297
50.55416	530.1944	-0.1250151
50.5625	530.2788	-0.1250331
50.57084	530.3618	-0.1250166
50.57916	530.4452	-0.1250161
50.5875	530.5312	-0.1249888
50.59583	530.6113	-0.1249643
50.60417	530.694	-0.1249418
50.6125	530.7798	-0.1249922
50.62084	530.8594	-0.1250284
50.62916	530.9453	-0.1250534
50.6375	531.0297	-0.1250993
50.64583	531.1134	-0.125117
50.65417	531.1934	-0.1251429
50.6625	531.2783	-0.1251516
50.67084	531.362	-0.125171
50.67916	531.4452	-0.1251403
50.6875	531.529	-0.1251208
50.69584	531.6135	-0.1251272
50.70416	531.6943	-0.1250682
50.7125	531.7795	-0.1250339
50.72083	531.8698	-0.1249719
50.72917	531.9546	-0.1249309
50.7375	532.0368	-0.1249058
50.74584	532.1182	-0.1248708
50.75416	532.2014	-0.1248476
50.7625	532.2882	-0.1248631
50.77083	532.3682	-0.1249213
50.77917	532.4466	-0.1248813
50.7875	532.526	-0.1248908
50.79584	532.6089	-0.1248867
50.80416	532.6918	-0.1249553
50.8125	532.7769	-0.1250254
50.82084	532.8594	-0.1250486
50.82916	532.9438	-0.1250757
50.8375	533.0246	-0.1250832
50.84583	533.1106	-0.125069
50.85417	533.1934	-0.1250362
50.8625	533.2754	-0.1250463
50.87084	533.3597	-0.1250297
50.87916	533.4432	-0.125029
50.8875	533.5261	-0.1249742
50.89583	533.6074	-0.1249137
50.90417	533.693	-0.1248754
50.9125	533.7772	-0.1248804
50.92084	533.8582	-0.1248836
50.92916	533.9401	-0.1249094
50.9375	534.024	-0.1248862
50.94584	534.1108	-0.1248791
50.95416	534.1906	-0.1248621
50.9625	534.275	-0.1248393
50.97083	534.3585	-0.1248306
50.97917	534.4403	-0.1248409
50.9875	534.5256	-0.1248362
50.99584	534.6086	-0.1248136
51.00416	534.6937	-0.1248104
51.0125	534.7754	-0.1247989
51.02083	534.8574	-0.1248224
51.02917	534.9422	-0.1248425
51.0375	535.024	-0.1248776
51.04584	535.1072	-0.1249014
51.05416	535.1922	-0.1248997
51.0625	535.2756	-0.1249146
51.07084	535.3574	-0.124961
51.07916	535.4484	-0.1250076
51.0875	535.5222	-0.1250213
51.09583	535.6066	-0.1250312
51.10417	535.6913	-0.125041
51.1125	535.7738	-0.1250603
51.12084	535.8584	-0.1250537
51.12916	535.9414	-0.1250397
51.1375	536.023	-0.125063
51.14583	536.1068	-0.125068
51.15417	536.1916	-0.1250402
51.1625	536.2738	-0.1250115
51.17084	536.3568	-0.1249676
51.17916	536.439	-0.1249588
51.1875	536.5248	-0.1249478
51.19584	536.6066	-0.1249095
51.20417	536.689	-0.1249222
51.2125	536.777	-0.1249411
51.22083	536.8555	-0.1249287
51.22917	536.9376	-0.1248976
51.2375	537.0231	-0.1249082
51.24584	537.1051	-0.1249434
51.25416	537.1903	-0.1249654
51.2625	537.2706	-0.1249721
51.27083	537.355	-0.124957
51.27917	537.4371	-0.1249576
51.2875	537.5219	-0.1249584
51.29583	537.6049	-0.1249359
51.30416	537.686	-0.1248933
51.3125	537.7709	-0.124885
51.32084	537.8549	-0.1248746
51.32917	537.937	-0.1248161
51.3375	538.0218	-0.1248058
51.34583	538.1063	-0.1248053
51.35417	538.1868	-0.1248142
51.3625	538.2716	-0.1247915
51.37084	538.3543	-0.124799
51.37916	538.4384	-0.1248795
51.3875	538.52	-0.124953
51.39583	538.6032	-0.1250016
51.40417	538.687	-0.1250135
51.4125	538.7698	-0.1250148
51.42083	538.8545	-0.1250269
51.42916	538.9395	-0.1250196
51.4375	539.023	-0.1250096
51.44584	539.1034	-0.1250648
51.45417	539.188	-0.1250435
51.4625	539.2703	-0.1249784
51.47083	539.3521	-0.1249214
51.47917	539.4363	-0.1248966
51.4875	539.5201	-0.1248931
51.49584	539.612	-0.1249114
51.50416	539.6952	-0.1249312
51.5125	539.7757	-0.1249543
51.52083	539.852	-0.1249776
51.52917	539.9368	-0.124955
51.5375	540.0196	-0.1249404
51.54583	540.1035	-0.1249406
51.55416	540.1872	-0.1249817
51.5625	540.269	-0.1250088
51.57084	540.3508	-0.1250279
51.57917	540.4331	-0.1250285
51.5875	540.5176	-0.1250232
51.59583	540.6016	-0.1250256
51.60417	540.6854	-0.1250336
51.6125	540.7648	-0.1250215
51.62084	540.8503	-0.1250634
51.62916	540.9336	-0.1250904
51.6375	541.0184	-0.125104
51.64583	541.0992	-0.1251092
51.65417	541.185	-0.1251205
51.6625	541.2671	-0.1251466
51.67083	541.35	-0.1251053
51.67916	541.4324	-0.1250808
51.6875	541.5162	-0.1250451
51.69584	541.6	-0.1250541
51.70417	541.6808	-0.1250592
51.7125	541.765	-0.124998
51.72083	541.8488	-0.124963
51.72917	541.9324	-0.1249268
51.7375	542.0139	-0.1248847
51.74584	542.0989	-0.1248385
51.75416	542.1821	-0.1248782
51.7625	542.2651	-0.1248732
51.77083	542.3474	-0.1248659
51.77917	542.4316	-0.1248396
51.7875	542.5184	-0.1248398
51.79583	542.5979	-0.1248634
51.80416	542.6812	-0.1248805
51.8125	542.7632	-0.1248373
51.82084	542.8492	-0.1248644
51.82917	542.9317	-0.1248736
51.8375	543.0165	-0.1248756
51.84583	543.0989	-0.124898
51.85417	543.183	-0.1249151
51.8625	543.2652	-0.1249202
51.87084	543.3472	-0.124867
51.87916	543.4413	-0.1248662
51.8875	543.5235	-0.1248244
51.89583	543.6056	-0.1248361
51.90417	543.6872	-0.1247845
51.9125	543.7755	-0.1248032
51.92083	543.855	-0.1247882
51.92916	543.94	-0.1247846
51.9375	544.0213	-0.124802
51.94584	544.104	-0.1248415
51.95417	544.1889	-0.1248738
51.9625	544.2629	-0.1248659
51.97083	544.3448	-0.1249019
51.97917	544.429	-0.1249062
51.9875	544.5113	-0.124942
51.99584	544.594	-0.1249443
52.00416	544.6768	-0.1249503
52.0125	544.7632	-0.1249018
52.02083	544.8412	-0.1248614
52.02917	544.9266	-0.1248203
52.0375	545.0096	-0.1248036
52.04583	545.0932	-0.1247944
52.05416	545.1759	-0.1247464
52.0625	545.2594	-0.1247436
52.07084	545.3418	-0.1247192
52.07917	545.4269	-0.1246835
52.0875	545.5093	-0.1246714
52.09583	545.5934	-0.12468
52.10417	545.6764	-0.1246983
52.1125	545.7594	-0.1246888
52.12084	545.8418	-0.1246502
52.12916	545.9245	-0.1246719
52.1375	546.0101	-0.1246749
52.14583	546.0922	-0.1246886
52.15417	546.1765	-0.1246982
52.1625	546.2576	-0.1246876
52.17083	546.3408	-0.1247028
52.17916	546.4252	-0.1246882
52.1875	546.5082	-0.1246757
52.19584	546.591	-0.1247053
52.20417	546.6728	-0.1247337
52.2125	546.7587	-0.1247394
52.22083	546.8418	-0.1247914
52.22917	546.9232	-0.1248117
52.2375	547.0062	-0.1248214
52.24584	547.09	-0.1248807
52.25416	547.174	-0.1248924
52.2625	547.256	-0.1249593
52.27083	547.339	-0.1249991
52.27917	547.4245	-0.1250081
52.2875	547.5054	-0.1250126
52.29583	547.5904	-0.1250224
52.30416	547.6744	-0.1249908
52.3125	547.7566	-0.1249762
52.32084	547.8402	-0.1249652
52.32917	547.9258	-0.1249456
52.3375	548.0076	-0.1249174
52.34583	548.0877	-0.1248629
52.35417	548.1705	-0.1248215
52.3625	548.262	-0.1247958
52.37084	548.3472	-0.1247937
52.37916	548.4297	-0.1247411
52.3875	548.516	-0.1247178
52.39583	548.5968	-0.124719
52.40417	548.6791	-0.1247087
52.4125	548.7543	-0.1246916
52.42083	548.837	-0.1247065
52.42916	548.9211	-0.1247536
52.4375	549.0051	-0.1246878
52.44584	549.088	-0.1247298
52.45418	549.1704	-0.1247587
52.4625	549.2511	-0.1248207
52.47082	549.337	-0.1248787
52.47918	549.4182	-0.1249003
52.4875	549.5022	-0.1249137
52.49584	549.5846	-0.1249151
52.50416	549.6693	-0.1249042
52.5125	549.7512	-0.1248414
52.52082	549.8344	-0.1249133
52.52918	549.9187	-0.1248859
52.5375	549.9998	-0.1248311
52.54582	550.0831	-0.1247811
52.55416	550.166	-0.1247647
52.5625	550.2552	-0.1247402
52.57084	550.3329	-0.1247605
52.57918	550.4176	-0.1247503
52.5875	550.4994	-0.1247489
52.59582	550.5826	-0.1248062
52.60418	550.6654	-0.1248524
52.6125	550.75	-0.1247981
52.62084	550.8325	-0.1248032
52.62916	550.9171	-0.1248779
52.6375	551.0104	-0.1249059
52.64582	551.085	-0.124882
52.65418	551.1641	-0.1247947
52.6625	551.248	-0.1248427
52.67082	551.3316	-0.124854
52.67916	551.4151	-0.1247966
52.6875	551.4997	-0.124686
52.69584	551.5806	-0.1246975
52.70418	551.6651	-0.1247449
52.7125	551.7481	-0.1247197
52.72082	551.8312	-0.1246452
52.72918	551.9134	-0.1246431
52.7375	551.9984	-0.1246982
52.74584	552.078	-0.1246788
52.75416	552.1633	-0.1246698
52.7625	552.2469	-0.1246733
52.77082	552.3302	-0.1247101
52.77918	552.4118	-0.1247162
52.7875	552.4959	-0.1246896
52.79582	552.58	-0.1246484
52.80416	552.6613	-0.1246732
52.8125	552.7551	-0.1246426
52.82084	552.8364	-0.1246369
52.82918	552.9188	-0.1245885
52.8375	553.0024	-0.1245531
52.84582	553.0867	-0.1245535
52.85418	553.1694	-0.124554
52.8625	553.2534	-0.1245494
52.87084	553.3365	-0.1244904
52.87916	553.4184	-0.1244577
52.8875	553.5044	-0.1244106
52.89582	553.5858	-0.1244419
52.90418	553.6684	-0.1244364
52.9125	553.7506	-0.1244454
52.92082	553.8258	-0.124442
52.92916	553.909	-0.124438
52.9375	553.9913	-0.1244271
52.94584	554.0748	-0.1244367
52.95418	554.1593	-0.124496
52.9625	554.2406	-0.1245141
52.97082	554.3261	-0.1245233
52.97918	554.4082	-0.1245119
52.9875	554.4921	-0.1245064
52.99584	554.5745	-0.1245206
53.00416	554.6582	-0.124539
53.0125	554.7374	-0.1245739
53.02082	554.823	-0.1246117
53.02918	554.9072	-0.1246194
53.0375	554.9887	-0.1246213
53.04582	555.0725	-0.1246252
53.05416	555.1566	-0.1246749
53.0625	555.2392	-0.124691
53.07084	555.3232	-0.1247098
53.07918	555.4075	-0.1247024
53.0875	555.4928	-0.124681
53.09582	555.5754	-0.1246851
53.10418	555.6562	-0.124661
53.1125	555.7396	-0.1246624
53.12084	555.8266	-0.1246609
53.12916	555.9075	-0.1246552
53.1375	555.9906	-0.1246113
53.14582	556.0731	-0.1246102
53.15418	556.1568	-0.1246015
53.1625	556.2411	-0.1245931
53.17082	556.3242	-0.1245956
53.17916	556.4071	-0.1245574
53.1875	556.4887	-0.1245807
53.19584	556.5727	-0.1245696
53.20418	556.6572	-0.1245448
53.2125	556.741	-0.124575
53.22082	556.827	-0.1246003
53.22918	556.9125	-0.1246218
53.2375	556.9972	-0.124611
53.24584	557.0813	-0.1246199
53.25416	557.1657	-0.1246309
53.2625	557.2462	-0.1246181
53.27082	557.3306	-0.1245905
53.27918	557.4146	-0.12459
53.2875	557.4979	-0.1245322
53.29582	557.5797	-0.1244878
53.30416	557.6649	-0.1244694
53.3125	557.7492	-0.1244288
53.32084	557.8242	-0.1244321
53.32918	557.9034	-0.1244228
53.3375	557.9862	-0.1244584
53.34582	558.0696	-0.1244719
53.35418	558.155	-0.1244657
53.3625	558.2368	-0.1244913
53.37084	558.3255	-0.1245566
53.37916	558.4106	-0.1245562
53.3875	558.4938	-0.1245438
53.39582	558.579	-0.1245417
53.40418	558.6602	-0.1245294
53.4125	558.7432	-0.1245248
53.42082	558.8278	-0.124497
53.42916	558.9111	-0.1244946
53.4375	558.992	-0.124492
53.44584	559.0771	-0.1244596
53.45418	559.1594	-0.1244389
53.4625	559.2419	-0.1244485
53.47082	559.3226	-0.1244708
53.47918	559.401	-0.124499
53.4875	559.4837	-0.124518
53.49584	559.566	-0.1245062
53.50416	559.65	-0.1244875
53.5125	559.7314	-0.1244744
53.52082	559.816	-0.1244706
53.52918	559.899	-0.12444
53.5375	559.9826	-0.1243941
53.54582	560.0675	-0.1244054
53.55416	560.1476	-0.1243854
53.5625	560.2288	-0.1243599
53.57084	560.3135	-0.1243679
53.57918	560.397	-0.124374
53.5875	560.4797	-0.1243732
53.59582	560.5707	-0.1243696
53.60418	560.647	-0.1243648
53.6125	560.7304	-0.1243779
53.62084	560.814	-0.1244156
53.62916	560.8982	-0.1244012
53.6375	560.9794	-0.1243756
53.64582	561.0639	-0.1243762
53.65418	561.1485	-0.1243471
53.6625	561.231	-0.1243509
53.67082	561.3132	-0.1243391
53.67916	561.3977	-0.1243306
53.6875	561.4786	-0.1243273
53.69584	561.562	-0.12433
53.70418	561.6454	-0.1243417
53.7125	561.7285	-0.124347
53.72082	561.8115	-0.1243715
53.72918	561.8952	-0.124392
53.7375	561.9768	-0.1244028
53.74584	562.0612	-0.1243799
53.75416	562.1434	-0.1244144
53.7625	562.2281	-0.124468
53.77082	562.309	-0.124478
53.77918	562.395	-0.124486
53.7875	562.479	-0.1245279
53.79582	562.561	-0.1245169
53.80416	562.6445	-0.1244917
53.8125	562.725	-0.1244613
53.82084	562.8102	-0.1244276
53.82918	562.8944	-0.1244195
53.8375	562.9756	-0.1243974
53.84582	563.0606	-0.1243698
53.85418	563.1421	-0.1243642
53.8625	563.225	-0.1243532
53.87084	563.309	-0.1242832
53.87916	563.39	-0.1242858
53.8875	563.4734	-0.1243175
53.89582	563.5566	-0.1242933
53.90418	563.6421	-0.1242811
53.9125	563.7254	-0.1243305
53.92082	563.81	-0.1243278
53.92916	563.892	-0.1243367
53.9375	563.9742	-0.1243462
53.94584	564.058	-0.1243487
53.95418	564.1394	-0.1243963
53.9625	564.2257	-0.1244489
53.97082	564.305	-0.1244696
53.97918	564.3898	-0.124541
53.9875	564.4714	-0.1246014
53.99584	564.5552	-0.1245832
54.00416	564.6394	-0.124614
54.0125	564.723	-0.1246026
54.02082	564.8068	-0.1245371
54.02918	564.8895	-0.1245025
54.0375	564.971	-0.1245087
54.04582	565.0543	-0.124489
54.05416	565.1382	-0.1244598
54.0625	565.2207	-0.1244
54.07084	565.3044	-0.1243925
54.07918	565.3874	-0.1244157
54.0875	565.4709	-0.1244046
54.09582	565.5552	-0.1243803
54.10418	565.6363	-0.1244158
54.1125	565.7213	-0.124455
54.12084	565.805	-0.1244187
54.12916	565.885	-0.1243709
54.1375	565.9701	-0.124349
54.14582	566.0556	-0.1243519
54.15418	566.1368	-0.1243064
54.1625	566.2184	-0.1242359
54.17082	566.3025	-0.1241747
54.17916	566.3856	-0.1241645
54.1875	566.4695	-0.1241882
54.19584	566.5537	-0.1241818
54.20418	566.6362	-0.124187
54.2125	566.717	-0.1242029
54.22082	566.8036	-0.1242301
54.22918	566.885	-0.1242484
54.2375	566.9684	-0.1242741
54.24584	567.0512	-0.124313
54.25416	567.1332	-0.1243556
54.2625	567.2176	-0.1243821
54.27082	567.3004	-0.1243564
54.27918	567.3829	-0.1243661
54.2875	567.465	-0.1243506
54.29582	567.5492	-0.1243579
54.30416	567.6328	-0.1243866
54.3125	567.7172	-0.1244052
54.32084	567.7988	-0.1244246
54.32918	567.8828	-0.1244496
54.3375	567.9664	-0.1244733
54.34582	568.0502	-0.1244718
54.35418	568.1322	-0.1244998
54.3625	568.2162	-0.124484
54.37084	568.2961	-0.124491
54.37916	568.3834	-0.1244726
54.3875	568.4644	-0.1244499
54.39582	568.5476	-0.1244264
54.40418	568.6306	-0.1243945
54.4125	568.7146	-0.1243398
54.42082	568.798	-0.124303
54.42916	568.88	-0.1243173
54.4375	568.9636	-0.1242972
54.44584	569.0462	-0.1243051
54.45418	569.1314	-0.1243016
54.4625	569.2152	-0.12429
54.47082	569.2988	-0.1242687
54.47918	569.3806	-0.1242576
54.4875	569.465	-0.1242825
54.49584	569.548	-0.1243594
54.50416	569.6291	-0.1243624
54.5125	569.7137	-0.1243566
54.52082	569.7962	-0.1244049
54.52918	569.8816	-0.124434
54.5375	569.9621	-0.1244871
54.54582	570.0459	-0.1245346
54.55416	570.1285	-0.1245594
54.5625	570.2123	-0.1245993
54.57084	570.3024	-0.124578
54.57918	570.3801	-0.124526
54.5875	570.4617	-0.1245758
54.59582	570.5442	-0.1245427
54.60418	570.628	-0.1245116
54.6125	570.7124	-0.124489
54.62084	570.7945	-0.1244551
54.62916	570.8772	-0.1244157
54.6375	570.9602	-0.1244134
54.64582	571.0443	-0.1243958
54.65418	571.1266	-0.1243435
54.6625	571.2102	-0.1243353
54.67082	571.293	-0.1242757
54.67916	571.3756	-0.1242846
54.6875	571.4592	-0.124272
54.69584	571.5438	-0.1242262
54.70418	571.6247	-0.1242105
54.7125	571.7176	-0.1242377
54.72082	571.7958	-0.1242125
54.72918	571.876	-0.1241824
54.7375	571.9588	-0.1242234
54.74584	572.04	-0.1242201
54.75416	572.122	-0.1242328
54.7625	572.2076	-0.1242618
54.77082	572.2915	-0.1242875
54.77918	572.3744	-0.1243381
54.7875	572.4582	-0.1243417
54.79582	572.542	-0.1243041
54.80416	572.6232	-0.1243059
54.8125	572.714	-0.1243102
54.82084	572.7967	-0.1243164
54.82918	572.873	-0.1243296
54.8375	572.9555	-0.1243283
54.84582	573.039	-0.1242963
54.85418	573.1242	-0.1242614
54.8625	573.2052	-0.1242285
54.87084	573.2901	-0.1242046
54.87916	573.3742	-0.1242004
54.8875	573.4578	-0.1241751
54.89582	573.5396	-0.1241636
54.90418	573.6234	-0.1241349
54.9125	573.7049	-0.1240919
54.92082	573.787	-0.1240912
54.92916	573.8717	-0.1240946
54.9375	573.954	-0.124071
54.94584	574.0366	-0.1240768
54.95418	574.1191	-0.124085
54.9625	574.2008	-0.124092
54.97082	574.2866	-0.1241263
54.97918	574.3698	-0.1241147
54.9875	574.4511	-0.1241329
54.99584	574.5357	-0.1241638
55.00416	574.623	-0.1241396
55.0125	574.7012	-0.1241394
55.02082	574.7856	-0.1241595
55.02918	574.8656	-0.1241444
55.0375	574.952	-0.1241611
55.04582	575.0328	-0.124145
55.05416	575.1164	-0.1241184
55.0625	575.1988	-0.1241443
55.07084	575.2844	-0.124143
55.07918	575.3668	-0.1241216
55.0875	575.4498	-0.1241316
55.09582	575.5316	-0.1240918
55.10418	575.6168	-0.1240634
55.1125	575.7031	-0.1240896
55.12084	575.7839	-0.1240793
55.12916	575.8657	-0.124082
55.1375	575.9482	-0.1240835
55.14582	576.0307	-0.1240696
55.15418	576.1137	-0.1240552
55.1625	576.198	-0.124042
55.17082	576.2805	-0.1240379
55.17916	576.3641	-0.1240699
55.1875	576.4492	-0.1241434
55.19584	576.5313	-0.1241305
55.20418	576.6133	-0.1240842
55.2125	576.6969	-0.1240955
55.22082	576.7817	-0.1240756
55.22918	576.8622	-0.1240645
55.2375	576.9478	-0.1240673
55.24584	577.0287	-0.1240864
55.25416	577.112	-0.1241072
55.2625	577.195	-0.1241139
55.27082	577.2795	-0.1240538
55.27918	577.368	-0.1240489
55.2875	577.45	-0.1240958
55.29582	577.5268	-0.1240969
55.30416	577.6122	-0.1241139
55.3125	577.6932	-0.12413
55.32084	577.7755	-0.1241493
55.32918	577.8585	-0.1241556
55.3375	577.9432	-0.1241248
55.34582	578.0265	-0.1241341
55.35418	578.1082	-0.1242132
55.3625	578.1921	-0.1241932
55.37084	578.2761	-0.1241704
55.37916	578.3606	-0.1241702
55.3875	578.441	-0.1241798
55.39582	578.5238	-0.1242073
55.40418	578.6082	-0.1241996
55.4125	578.689	-0.1242217
55.42082	578.7748	-0.1242394
55.42916	578.856	-0.1241817
55.4375	578.9414	-0.1241171
55.44584	579.0308	-0.1241253
55.45418	579.113	-0.1241031
55.4625	579.1895	-0.1240749
55.47082	579.2715	-0.1240304
55.47918	579.3547	-0.1239904
55.4875	579.4377	-0.1239761
55.49584	579.5204	-0.123927
55.50416	579.6034	-0.1239175
55.5125	579.6876	-0.1239516
55.52082	579.771	-0.1239296
55.52918	579.853	-0.1239597
55.5375	579.9372	-0.1240343
55.54582	580.0194	-0.124066
55.55416	580.1015	-0.1241294
55.5625	580.1829	-0.1241702
55.57084	580.2703	-0.1241746
55.57918	580.349	-0.1241982
55.5875	580.4349	-0.1241731
55.59582	580.5174	-0.1241637
55.60418	580.6	-0.1241701
55.6125	580.6855	-0.1241378
55.62084	580.7684	-0.1240776
55.62916	580.8516	-0.124081
55.6375	580.932	-0.1240486
55.64582	581.0169	-0.1240254
55.65418	581.0997	-0.124069
55.6625	581.1844	-0.1240972
55.67082	581.2668	-0.1241721
55.67916	581.3505	-0.1242133
55.6875	581.4358	-0.1242223
55.69584	581.5172	-0.1242576
55.70418	581.6009	-0.1242715
55.7125	581.6829	-0.124246
55.72082	581.765	-0.1242466
55.72918	581.8502	-0.1242732
55.7375	581.9336	-0.1242044
55.74584	582.0163	-0.1241422
55.75416	582.1018	-0.1241636
55.7625	582.184	-0.124155
55.77082	582.2657	-0.1241862
55.77918	582.3488	-0.1241736
55.7875	582.4312	-0.1242048
55.79582	582.5151	-0.1241842
55.80416	582.5972	-0.1242258
55.8125	582.6811	-0.1241967
55.82084	582.7642	-0.124186
55.82918	582.8466	-0.1241667
55.8375	582.9278	-0.1240762
55.84582	583.0124	-0.1240533
55.85418	583.0958	-0.1240389
55.8625	583.1778	-0.1240572
55.87084	583.2624	-0.1240861
55.87916	583.3453	-0.124145
55.8875	583.4272	-0.1241074
55.89582	583.5106	-0.1240795
55.90418	583.5936	-0.124092
55.9125	583.678	-0.1241447
55.92082	583.7623	-0.1241731
55.92916	583.8502	-0.124131
55.9375	583.9266	-0.1240593
55.94584	584.0106	-0.1240246
55.95418	584.0929	-0.1239641
55.9625	584.1776	-0.1239018
55.97082	584.26	-0.1238682
55.97918	584.3402	-0.1238371
55.9875	584.4238	-0.1238442
55.99584	584.5078	-0.1238091
56.00416	584.5898	-0.12377
56.0125	584.6754	-0.1238038
56.02082	584.7579	-0.1238542
56.02918	584.8422	-0.1238487
56.0375	584.9293	-0.1238473
56.04582	585.0163	-0.1238584
56.05416	585.0972	-0.1238711
56.0625	585.1778	-0.1239196
56.07084	585.2543	-0.1239767
56.07918	585.3391	-0.1240071
56.0875	585.421	-0.1240109
56.09582	585.5057	-0.123984
56.10418	585.5889	-0.1239838
56.1125	585.6698	-0.1239877
56.12084	585.7533	-0.1239666
56.12916	585.8371	-0.1239814
56.1375	585.9211	-0.1239834
56.14582	586.0028	-0.123969
56.15418	586.0886	-0.1239542
56.1625	586.1756	-0.1239699
56.17082	586.2533	-0.1240116
56.17916	586.3376	-0.124065
56.1875	586.4195	-0.1240737
56.19584	586.5031	-0.1240769
56.20418	586.5859	-0.1240963
56.2125	586.6739	-0.1240866
56.22082	586.7596	-0.1240854
56.22918	586.843	-0.124094
56.2375	586.9197	-0.1240632
56.24584	586.9994	-0.1240228
56.25416	587.0844	-0.123991
56.2625	587.1695	-0.1239792
56.27082	587.2524	-0.1239635
56.27918	587.3328	-0.1239375
56.2875	587.4169	-0.123926
56.29582	587.5	-0.1239172
56.30416	587.5824	-0.123914
56.3125	587.6651	-0.1239281
56.32084	587.7493	-0.1239456
56.32918	587.8332	-0.1239589
56.3375	587.9152	-0.123983
56.34582	587.9992	-0.1239774
56.35418	588.0829	-0.1239792
56.3625	588.165	-0.1240252
56.37084	588.2481	-0.1240358
56.37916	588.3318	-0.1240581
56.3875	588.4164	-0.1240709
56.39582	588.4981	-0.1240331
56.40418	588.5816	-0.1240367
56.4125	588.6641	-0.1240376
56.42082	588.747	-0.1240252
56.42916	588.8304	-0.1240135
56.4375	588.9192	-0.1240232
56.44584	588.9955	-0.1239916
56.45418	589.0791	-0.1239989
56.4625	589.1621	-0.1239713
56.47082	589.2459	-0.1239702
56.47918	589.3285	-0.1240021
56.4875	589.4136	-0.1239504
56.49584	589.4962	-0.1239299
56.50416	589.5771	-0.1238969
56.5125	589.662	-0.1238926
56.52082	589.744	-0.123878
56.52918	589.8294	-0.1238516
56.5375	589.9112	-0.1238882
56.54582	590.0024	-0.1239299
56.55416	590.079	-0.1239191
56.5625	590.1615	-0.1239293
56.57084	590.2445	-0.1239796
56.57918	590.3248	-0.1240184
56.5875	590.409	-0.1240605
56.59582	590.4904	-0.1240806
56.60418	590.575	-0.1241221
56.6125	590.6579	-0.1241936
56.62084	590.7412	-0.1242148
56.62916	590.8256	-0.1242154
56.6375	590.9092	-0.1242357
56.64582	590.9907	-0.124226
56.65418	591.0724	-0.1242351
56.6625	591.1574	-0.1242073
56.67082	591.2418	-0.1241854
56.67916	591.3235	-0.124173
56.6875	591.4063	-0.1241161
56.69584	591.4912	-0.1240683
56.70418	591.574	-0.1239796
56.7125	591.6554	-0.1239177
56.72082	591.74	-0.123898
56.72918	591.8219	-0.1238834
56.7375	591.905	-0.1238443
56.74584	591.9885	-0.1238476
56.75416	592.0722	-0.1238528
56.7625	592.1544	-0.1238596
56.77082	592.2377	-0.1238888
56.77918	592.3198	-0.1238809
56.7875	592.4047	-0.1238897
56.79582	592.487	-0.1239374
56.80416	592.5702	-0.1239417
56.8125	592.6534	-0.1239507
56.82084	592.7372	-0.124029
56.82918	592.8211	-0.1240355
56.8375	592.9018	-0.1240195
56.84582	592.9863	-0.1240206
56.85418	593.0722	-0.1240127
56.8625	593.1515	-0.1240022
56.87084	593.2352	-0.1239917
56.87916	593.3165	-0.1239764
56.8875	593.4022	-0.123934
56.89582	593.4859	-0.1239057
56.90418	593.5674	-0.1238174
56.9125	593.652	-0.1237784
56.92082	593.7344	-0.1238032
56.92916	593.8206	-0.1237688
56.9375	593.8993	-0.1237615
56.94584	593.9824	-0.1237872
56.95418	594.0684	-0.123759
56.9625	594.1498	-0.1237381
56.97082	594.2325	-0.1237549
56.97918	594.3168	-0.1237603
56.9875	594.3994	-0.1237522
56.99584	594.4847	-0.1237339
57.00416	594.5676	-0.1236612
57.0125	594.6512	-0.1237195
57.02082	594.7334	-0.1237396
57.02918	594.8154	-0.123734
57.0375	594.899	-0.123753
57.04582	594.9812	-0.1237558
57.05416	595.0644	-0.123773
57.0625	595.147	-0.1237937
57.07084	595.2309	-0.1238026
57.07918	595.314	-0.1238324
57.0875	595.399	-0.1238482
57.09582	595.481	-0.123767
57.10418	595.5629	-0.1237255
57.1125	595.6472	-0.1236875
57.12084	595.7298	-0.1236893
57.12916	595.8139	-0.1236925
57.1375	595.8959	-0.1236881
57.14582	595.9784	-0.123644
57.15418	596.061	-0.1236404
57.1625	596.1462	-0.1236352
57.17082	596.2286	-0.1236476
57.17916	596.3146	-0.1236287
57.1875	596.3959	-0.1236543
57.19584	596.4784	-0.1236941
57.20418	596.5628	-0.1236968
57.2125	596.6478	-0.1236602
57.22082	596.7336	-0.123626
57.22918	596.8184	-0.1236369
57.2375	596.8965	-0.123647
57.24584	596.98	-0.1236738
57.25416	597.0626	-0.123697
57.2625	597.1445	-0.1237548
